time,target gyro x,target gyro y,target gyro z,gyro x,gyro y,gyro z,target angle x,target angle y,target angle z,angle x,angle y,angle z,target vel z,vel z,target pos z,pos z,desire thrust,desire rotor speed,rotor speed,motor_output,bettery voltage,height,thrust,imu_z,acc_z_d,acc_z_com
38.73199,0.59270,0.26829,-0.44948,-0.06815,0.15800,0.14231,0.02461,-0.02719,2.22641,0.05674,-0.07416,2.31336,0.03060,0.01003,-0.65000,-0.67040,-4.43649,824.80175,839.66131,0.61258,12.53936,0.67040,-0.23356,-10.07946,9.73286,9.49929
38.73300,0.59270,0.26829,-0.44948,-0.07544,0.15922,0.13621,0.02461,-0.02719,2.22641,0.05674,-0.07416,2.31336,0.03060,0.01003,-0.65000,-0.67040,-4.43584,824.74157,839.66131,0.61253,12.53932,0.67040,-0.23425,-10.07946,9.73286,9.49860
38.73400,0.59270,0.26829,-0.44948,-0.07544,0.15922,0.13621,0.02461,-0.02719,2.22641,0.05674,-0.07416,2.31336,0.03060,0.01003,-0.65000,-0.67040,-4.43584,824.74157,839.66131,0.61253,12.53928,0.67040,-0.23500,-10.10381,9.73286,9.49785
38.73500,0.59270,0.26829,-0.44948,-0.07755,0.15582,0.12872,0.02461,-0.02719,2.22641,0.05674,-0.07416,2.31336,0.03060,0.01003,-0.65000,-0.67040,-4.43515,824.67712,844.40063,0.61247,12.53923,0.67040,-0.23574,-10.10381,9.73286,9.49711
38.73600,0.59270,0.26829,-0.44948,-0.07755,0.15582,0.12872,0.02461,-0.02719,2.22641,0.05674,-0.07416,2.31336,0.03060,0.01003,-0.65000,-0.67040,-4.43515,824.67712,844.40063,0.61247,12.53919,0.67040,-0.23629,-10.00990,9.73286,9.49656
38.73699,0.59270,0.26829,-0.44948,-0.07759,0.15775,0.12517,0.02461,-0.02719,2.22641,0.05674,-0.07416,2.31336,0.03060,0.01003,-0.65000,-0.67040,-4.43463,824.62902,844.40063,0.61243,12.53914,0.67040,-0.23685,-10.00990,9.73286,9.49600
38.73799,0.59270,0.26829,-0.44948,-0.07759,0.15775,0.12517,0.02461,-0.02719,2.22641,0.05674,-0.07416,2.31336,0.03060,0.01003,-0.65000,-0.67040,-4.43463,824.62902,838.09326,0.61243,12.53909,0.67040,-0.23716,-9.89211,9.73286,9.49569
38.73899,-1.57079,1.57079,-0.59796,-0.08229,0.16128,0.12749,-0.18073,0.10497,2.22641,0.05576,-0.07287,2.31486,0.55560,0.01003,-0.30000,-0.67040,-3.77889,761.22332,838.09326,0.55411,12.53903,0.67040,-0.24028,-9.89211,8.33214,8.09185
38.74000,-1.57079,1.57079,-0.59796,-0.08229,0.16128,0.12749,-0.18073,0.10497,2.22641,0.05576,-0.07287,2.31486,0.55560,0.01003,-0.30000,-0.67040,-3.77889,761.22332,845.19567,0.55411,12.53898,0.67040,-0.24337,-9.87597,8.33214,8.08876
38.74100,-1.57079,1.57079,-0.59796,-0.08738,0.15956,0.12810,-0.18073,0.10497,2.22641,0.05576,-0.07287,2.31486,0.55560,0.01003,-0.30000,-0.67040,-3.77601,760.93286,845.19567,0.55385,12.53892,0.67040,-0.24646,-9.87597,8.33214,8.08568
38.74200,-1.57079,1.57079,-0.59796,-0.08738,0.15956,0.12810,-0.18073,0.10497,2.22641,0.05576,-0.07287,2.31486,0.55560,0.01003,-0.30000,-0.67040,-3.77601,760.93286,845.19567,0.55385,12.53886,0.67040,-0.24945,-9.82666,8.33214,8.08269
38.74300,-1.57079,1.57079,-0.59796,-0.08871,0.15890,0.12216,-0.18073,0.10497,2.22641,0.05576,-0.07287,2.31486,0.55560,0.01003,-0.30000,-0.67040,-3.77322,760.65142,845.19567,0.55360,12.53880,0.67040,-0.25244,-9.82666,8.33214,8.07970
38.74399,-1.57079,1.57079,-0.59796,-0.08871,0.15890,0.12216,-0.18073,0.10497,2.22641,0.05576,-0.07287,2.31486,0.55560,0.01003,-0.30000,-0.67040,-3.77322,760.65142,845.19567,0.55360,12.53874,0.67040,-0.25517,-9.69660,8.33214,8.07697
38.74499,-1.57079,1.57079,-0.59796,-0.09358,0.16436,0.11357,-0.18073,0.10497,2.22641,0.05576,-0.07287,2.31486,0.55560,0.01003,-0.30000,-0.67040,-3.77067,760.39453,845.19567,0.55337,12.53868,0.67040,-0.25790,-9.69660,8.33214,8.07424
38.74599,-1.57079,1.57079,-0.59796,-0.09358,0.16436,0.11357,-0.18073,0.10497,2.22641,0.05576,-0.07287,2.31486,0.55560,0.01003,-0.30000,-0.67040,-3.77067,760.39453,836.53112,0.55337,12.53861,0.67040,-0.26056,-9.66258,8.33214,8.07158
38.74700,-1.57079,1.57079,-0.59796,-0.10552,0.16704,0.10438,-0.18073,0.10497,2.22641,0.05576,-0.07287,2.31486,0.55560,0.01003,-0.30000,-0.67040,-3.76818,760.14392,833.42425,0.55314,12.53854,0.67040,-0.26322,-9.66258,8.33214,8.06892
38.74800,-1.57079,1.57079,-0.59796,-0.10552,0.16704,0.10438,-0.18073,0.10497,2.22641,0.05576,-0.07287,2.31486,0.55560,0.01003,-0.30000,-0.67040,-3.76818,760.14392,831.87939,0.55314,12.53847,0.67040,-0.26606,-9.75243,8.33214,8.06608
38.74900,-0.08387,0.71326,-0.48707,-0.11536,0.16240,0.09284,-0.10222,0.05460,2.22641,0.05459,-0.07148,2.31613,0.55560,-0.00061,-0.30000,-0.67040,-3.69160,752.38018,833.42425,0.54601,12.53840,0.67040,-0.26921,-9.75243,8.17416,7.90494
38.75000,-0.08387,0.71326,-0.48707,-0.11536,0.16240,0.09284,-0.10222,0.05460,2.22641,0.05459,-0.07148,2.31613,0.55560,-0.00061,-0.30000,-0.67040,-3.69160,752.38018,833.42425,0.54601,12.53832,0.67040,-0.27246,-9.79456,8.17416,7.90170
38.75099,-0.08387,0.71326,-0.48707,-0.11943,0.16015,0.08354,-0.10222,0.05460,2.22641,0.05459,-0.07148,2.31613,0.55560,-0.00061,-0.30000,-0.67040,-3.68858,752.07165,833.42425,0.54573,12.53825,0.67040,-0.27570,-9.79455,8.17416,7.89845
38.75199,-0.08387,0.71326,-0.48707,-0.11943,0.16015,0.08354,-0.10222,0.05460,2.22641,0.05459,-0.07148,2.31613,0.55560,-0.00061,-0.30000,-0.67040,-3.68858,752.07165,842.02429,0.54573,12.53817,0.67040,-0.27886,-9.75825,8.17416,7.89529
38.75299,-0.08387,0.71326,-0.48707,-0.12594,0.16353,0.08395,-0.10222,0.05460,2.22641,0.05459,-0.07148,2.31613,0.55560,-0.00061,-0.30000,-0.67040,-3.68562,751.76989,842.02429,0.54546,12.53808,0.67040,-0.28203,-9.75825,8.17416,7.89212
38.75400,-0.08387,0.71326,-0.48707,-0.12594,0.16353,0.08395,-0.10222,0.05460,2.22641,0.05459,-0.07148,2.31613,0.55560,-0.00061,-0.30000,-0.67040,-3.68562,751.76989,842.02429,0.54546,12.53800,0.67040,-0.28523,-9.77410,8.17416,7.88892
38.75500,-0.08387,0.71326,-0.48707,-0.13621,0.16296,0.09183,-0.10222,0.05460,2.22641,0.05459,-0.07148,2.31613,0.55560,-0.00061,-0.30000,-0.67040,-3.68263,751.46508,831.10913,0.54519,12.53792,0.67040,-0.28843,-9.77410,8.17416,7.88572
38.75600,-0.08387,0.71326,-0.48707,-0.13621,0.16296,0.09183,-0.10222,0.05460,2.22641,0.05459,-0.07148,2.31613,0.55560,-0.00061,-0.30000,-0.67040,-3.68263,751.46508,831.10913,0.54519,12.53783,0.67040,-0.29176,-9.83953,8.17416,7.88239
38.75699,-0.08387,0.71326,-0.48707,-0.14183,0.15766,0.10000,-0.10222,0.05460,2.22641,0.05459,-0.07148,2.31613,0.55560,-0.00061,-0.30000,-0.67040,-3.67952,751.14758,842.02429,0.54490,12.53774,0.67040,-0.29509,-9.83953,8.17416,7.87906
38.75799,-0.08387,0.71326,-0.48707,-0.14183,0.15766,0.10000,-0.10222,0.05460,2.22641,0.05459,-0.07148,2.31613,0.55560,-0.00061,-0.30000,-0.67040,-3.67952,751.14758,842.02429,0.54490,12.53765,0.67040,-0.29836,-9.80676,8.17416,7.87579
38.75899,0.67803,0.39392,-0.47408,-0.14364,0.15795,0.10902,-0.05926,0.03598,2.22641,0.05315,-0.07006,2.31713,0.55560,0.00265,-0.30000,-0.67040,-3.66458,749.62097,842.02429,0.54351,12.53756,0.67040,-0.30168,-9.80676,8.14874,7.84706
38.75999,0.67803,0.39392,-0.47408,-0.14364,0.15795,0.10902,-0.05926,0.03598,2.22641,0.05315,-0.07006,2.31713,0.55560,0.00265,-0.30000,-0.67040,-3.66458,749.62097,823.48431,0.54351,12.53746,0.67040,-0.30475,-9.68577,8.14874,7.84399
38.76100,0.67803,0.39392,-0.47408,-0.15121,0.16310,0.12253,-0.05926,0.03598,2.22641,0.05315,-0.07006,2.31713,0.55560,0.00265,-0.30000,-0.67040,-3.66170,749.32727,823.48431,0.54324,12.53737,0.67040,-0.30782,-9.68577,8.14874,7.84091
38.76200,0.67803,0.39392,-0.47408,-0.15121,0.16310,0.12253,-0.05926,0.03598,2.22641,0.05315,-0.07006,2.31713,0.55560,0.00265,-0.30000,-0.67040,-3.66170,749.32727,821.22412,0.54324,12.53728,0.67040,-0.31082,-9.64834,8.14874,7.83792
38.76300,0.67803,0.39392,-0.47408,-0.16345,0.16308,0.13802,-0.05926,0.03598,2.22641,0.05315,-0.07006,2.31713,0.55560,0.00265,-0.30000,-0.67040,-3.65890,749.04058,821.22412,0.54299,12.53719,0.67040,-0.31382,-9.64834,8.14874,7.83492
38.76399,0.67803,0.39392,-0.47408,-0.16345,0.16308,0.13802,-0.05926,0.03598,2.22641,0.05315,-0.07006,2.31713,0.55560,0.00265,-0.30000,-0.67040,-3.65890,749.04058,818.97613,0.54299,12.53709,0.67040,-0.31688,-9.67902,8.14874,7.83186
38.76499,0.67803,0.39392,-0.47408,-0.17126,0.16056,0.15363,-0.05926,0.03598,2.22641,0.05315,-0.07006,2.31713,0.55560,0.00265,-0.30000,-0.67040,-3.65604,748.74792,818.97613,0.54273,12.53700,0.67040,-0.31994,-9.67902,8.14874,7.82880
38.76599,0.67803,0.39392,-0.47408,-0.17126,0.16056,0.15363,-0.05926,0.03598,2.22641,0.05315,-0.07006,2.31713,0.55560,0.00265,-0.30000,-0.67040,-3.65604,748.74792,818.97613,0.54273,12.53691,0.67040,-0.32286,-9.60824,8.14874,7.82588
38.76699,0.67803,0.39392,-0.47408,-0.17622,0.16544,0.17576,-0.05926,0.03598,2.22641,0.05315,-0.07006,2.31713,0.55560,0.00265,-0.30000,-0.67040,-3.65332,748.46868,813.04156,0.54248,12.53682,0.67040,-0.32578,-9.60824,8.14874,7.82296
38.76800,0.67803,0.39392,-0.47408,-0.17622,0.16544,0.17576,-0.05926,0.03598,2.22641,0.05315,-0.07006,2.31713,0.55560,0.00265,-0.30000,-0.67040,-3.65332,748.46868,813.04156,0.54248,12.53673,0.67040,-0.32845,-9.48575,8.14874,7.82028
38.76900,0.56659,0.21399,-0.46938,-0.18595,0.17349,0.20920,-0.04518,0.01776,2.22641,0.05132,-0.06868,2.31819,0.55560,-0.00163,-0.30000,-0.67040,-3.64012,747.11529,813.04156,0.54124,12.53664,0.67040,-0.33117,-9.48575,8.12587,7.79469
38.77000,0.56659,0.21399,-0.46938,-0.18595,0.17349,0.20920,-0.04518,0.01776,2.22641,0.05132,-0.06868,2.31819,0.55560,-0.00163,-0.30000,-0.67040,-3.64012,747.11529,813.04156,0.54124,12.53655,0.67040,-0.33382,-9.44818,8.12587,7.79205
38.77099,0.56659,0.21399,-0.46938,-0.19712,0.17505,0.24876,-0.04518,0.01776,2.22641,0.05132,-0.06868,2.31819,0.55560,-0.00163,-0.30000,-0.67040,-3.63765,746.86175,805.74316,0.54102,12.53645,0.67040,-0.33646,-9.44819,8.12587,7.78940
38.77199,0.56659,0.21399,-0.46938,-0.19712,0.17505,0.24876,-0.04518,0.01776,2.22641,0.05132,-0.06868,2.31819,0.55560,-0.00163,-0.30000,-0.67040,-3.63765,746.86175,802.14288,0.54102,12.53636,0.67040,-0.33899,-9.38867,8.12587,7.78688
38.77299,0.56659,0.21399,-0.46938,-0.20272,0.17464,0.28897,-0.04518,0.01776,2.22641,0.05132,-0.06868,2.31819,0.55560,-0.00163,-0.30000,-0.67040,-3.63529,746.61956,802.14288,0.54080,12.53627,0.67040,-0.34152,-9.38867,8.12587,7.78435
38.77399,0.56659,0.21399,-0.46938,-0.20272,0.17464,0.28897,-0.04518,0.01776,2.22641,0.05132,-0.06868,2.31819,0.55560,-0.00163,-0.30000,-0.67040,-3.63529,746.61956,807.19238,0.54080,12.53619,0.67040,-0.34366,-9.19910,8.12587,7.78220
38.77500,0.56659,0.21399,-0.46938,-0.20790,0.18010,0.33149,-0.04518,0.01776,2.22641,0.05132,-0.06868,2.31819,0.55560,-0.00163,-0.30000,-0.67040,-3.63328,746.41363,803.57916,0.54062,12.53610,0.67040,-0.34581,-9.19910,8.12587,7.78006
38.77600,0.56659,0.21399,-0.46938,-0.20790,0.18010,0.33149,-0.04518,0.01776,2.22641,0.05132,-0.06868,2.31819,0.55560,-0.00163,-0.30000,-0.67040,-3.63328,746.41363,803.57916,0.54062,12.53601,0.67040,-0.34762,-9.03295,8.12587,7.77824
38.77700,0.56659,0.21399,-0.46938,-0.21958,0.18523,0.37656,-0.04518,0.01776,2.22641,0.05132,-0.06868,2.31819,0.55560,-0.00163,-0.30000,-0.67040,-3.63159,746.23956,800.71173,0.54047,12.53593,0.67040,-0.34944,-9.03295,8.12587,7.77643
38.77799,0.56659,0.21399,-0.46938,-0.21958,0.18523,0.37656,-0.04518,0.01776,2.22641,0.05132,-0.06868,2.31819,0.55560,-0.00163,-0.30000,-0.67040,-3.63159,746.23956,799.99810,0.54047,12.53585,0.67040,-0.35122,-9.01790,8.12587,7.77465
38.77899,0.49920,0.29767,-0.48361,-0.23083,0.18324,0.41895,-0.03599,0.01119,2.22641,0.04899,-0.06723,2.32032,0.55560,-0.00163,-0.30000,-0.67040,-3.62814,745.88519,799.99810,0.54015,12.53577,0.67040,-0.35301,-9.01790,8.12206,7.76905
38.77999,0.49920,0.29767,-0.48361,-0.23083,0.18324,0.41895,-0.03599,0.01119,2.22641,0.04899,-0.06723,2.32032,0.55560,-0.00163,-0.30000,-0.67040,-3.62814,745.88519,799.99810,0.54015,12.53570,0.67040,-0.35481,-9.02180,8.12206,7.76725
38.78099,0.49920,0.29767,-0.48361,-0.23394,0.18241,0.45814,-0.03599,0.01119,2.22641,0.04899,-0.06723,2.32032,0.55560,-0.00163,-0.30000,-0.67040,-3.62646,745.71234,798.57464,0.53999,12.53563,0.67040,-0.35661,-9.02212,8.12206,7.76545
38.78200,0.49920,0.29767,-0.48361,-0.23394,0.18241,0.45814,-0.03599,0.01119,2.22641,0.04899,-0.06723,2.32032,0.55560,-0.00163,-0.30000,-0.67040,-3.62646,745.71234,798.57464,0.53999,12.53556,0.67040,-0.35825,-8.94247,8.12206,7.76380
38.78300,0.49920,0.29767,-0.48361,-0.23644,0.18995,0.50091,-0.03599,0.01119,2.22641,0.04899,-0.06723,2.32032,0.55560,-0.00163,-0.30000,-0.67040,-3.62493,745.55480,798.57464,0.53985,12.53550,0.67040,-0.35989,-8.94247,8.12206,7.76216
38.78400,0.49920,0.29767,-0.48361,-0.23644,0.18995,0.50091,-0.03599,0.01119,2.22641,0.04899,-0.06723,2.32032,0.55560,-0.00163,-0.30000,-0.67040,-3.62493,745.55480,798.57464,0.53985,12.53544,0.67040,-0.36144,-8.89637,8.12206,7.76062
38.78499,0.49920,0.29767,-0.48361,-0.24676,0.19686,0.54890,-0.03599,0.01119,2.22641,0.04899,-0.06723,2.32032,0.55560,-0.00163,-0.30000,-0.67040,-3.62348,745.40606,797.86480,0.53972,12.53538,0.67040,-0.36299,-8.89637,8.12206,7.75907
38.78599,0.49920,0.29767,-0.48361,-0.24676,0.19686,0.54890,-0.03599,0.01119,2.22641,0.04899,-0.06723,2.32032,0.55560,-0.00163,-0.30000,-0.67040,-3.62348,745.40606,796.44885,0.53972,12.53533,0.67040,-0.36465,-8.95203,8.12206,7.75741
38.78699,0.49920,0.29767,-0.48361,-0.25756,0.19568,0.59546,-0.03599,0.01119,2.22641,0.04899,-0.06723,2.32032,0.55560,-0.00163,-0.30000,-0.67040,-3.62193,745.24658,797.15625,0.53958,12.53528,0.67040,-0.36631,-8.95203,8.12206,7.75575
38.78799,0.49920,0.29767,-0.48361,-0.25756,0.19568,0.59546,-0.03599,0.01119,2.22641,0.04899,-0.06723,2.32032,0.55560,-0.00163,-0.30000,-0.67040,-3.62193,745.24658,797.15625,0.53958,12.53524,0.67040,-0.36802,-8.97565,8.12206,7.75404
38.78900,0.37510,0.45858,-0.51192,-0.26042,0.19495,0.63836,-0.03452,0.01316,2.22641,0.04611,-0.06571,2.32467,0.55560,-0.00115,-0.30000,-0.67040,-3.62091,745.14111,797.15625,0.53949,12.53520,0.67040,-0.36972,-8.97565,8.12328,7.75355
38.79000,0.37510,0.45858,-0.51192,-0.26042,0.19495,0.63836,-0.03452,0.01316,2.22641,0.04611,-0.06571,2.32467,0.55560,-0.00115,-0.30000,-0.67040,-3.62091,745.14111,797.15625,0.53949,12.53516,0.67040,-0.37126,-8.89128,8.12328,7.75202
38.79100,0.37510,0.45858,-0.51192,-0.26260,0.20100,0.68248,-0.03452,0.01316,2.22641,0.04611,-0.06571,2.32467,0.55560,-0.00115,-0.30000,-0.67040,-3.61947,744.99353,797.15625,0.53935,12.53513,0.67050,-0.37279,-8.89128,8.12328,7.75048
38.79199,0.37510,0.45858,-0.51192,-0.26260,0.20100,0.68248,-0.03452,0.01316,2.22641,0.04611,-0.06571,2.32467,0.55560,-0.00115,-0.30000,-0.67040,-3.61947,744.99353,797.15625,0.53935,12.53510,0.67050,-0.37423,-8.84350,8.12328,7.74904
38.79299,0.37510,0.45858,-0.51192,-0.27228,0.20450,0.72777,-0.03452,0.01316,2.22641,0.04611,-0.06571,2.32467,0.55560,-0.00115,-0.30000,-0.67040,-3.61813,744.85504,797.15625,0.53923,12.53508,0.67050,-0.37568,-8.84350,8.12328,7.74760
38.79399,0.37510,0.45858,-0.51192,-0.27228,0.20450,0.72777,-0.03452,0.01316,2.22641,0.04611,-0.06571,2.32467,0.55560,-0.00115,-0.30000,-0.67040,-3.61813,744.85504,788.75036,0.53923,12.53507,0.67050,-0.37728,-8.92700,8.12328,7.74599
38.79499,0.37510,0.45858,-0.51192,-0.28226,0.19947,0.76784,-0.03452,0.01316,2.22641,0.04611,-0.06571,2.32467,0.55560,-0.00115,-0.30000,-0.67040,-3.61663,744.70050,788.75036,0.53909,12.53506,0.67050,-0.37889,-8.92700,8.12328,7.74439
38.79600,0.37510,0.45858,-0.51192,-0.28226,0.19947,0.76784,-0.03452,0.01316,2.22641,0.04611,-0.06571,2.32467,0.55560,-0.00115,-0.30000,-0.67040,-3.61663,744.70050,797.15625,0.53909,12.53505,0.67050,-0.38066,-9.00866,8.12328,7.74261
38.79700,0.37510,0.45858,-0.51192,-0.28470,0.19593,0.80275,-0.03452,0.01316,2.22641,0.04611,-0.06571,2.32467,0.55560,-0.00115,-0.30000,-0.67040,-3.61497,744.53015,797.15625,0.53893,12.53505,0.67050,-0.38243,-9.00866,8.12328,7.74084
38.79800,0.37510,0.45858,-0.51192,-0.28470,0.19593,0.80275,-0.03452,0.01316,2.22641,0.04611,-0.06571,2.32467,0.55560,-0.00115,-0.30000,-0.67040,-3.61497,744.53015,788.75036,0.53893,12.53505,0.67050,-0.38418,-8.99882,8.12328,7.73909
38.79899,0.38015,0.62383,-0.55083,-0.28682,0.20048,0.84002,-0.03147,0.02073,2.22641,0.04277,-0.06411,2.33136,0.55574,-0.00073,-0.30000,-0.67050,-3.61382,744.41162,788.75036,0.53882,12.53507,0.67050,-0.38593,-8.99882,8.12432,7.73838
38.79999,0.38015,0.62383,-0.55083,-0.28682,0.20048,0.84002,-0.03147,0.02073,2.22641,0.04277,-0.06411,2.33136,0.55574,-0.00073,-0.30000,-0.67050,-3.61382,744.41162,787.36657,0.53882,12.53508,0.67050,-0.38771,-9.01228,8.12432,7.73660
38.80099,0.38015,0.62383,-0.55083,-0.29582,0.20380,0.88067,-0.03147,0.02073,2.22641,0.04277,-0.06411,2.33136,0.55574,-0.00073,-0.30000,-0.67050,-3.61216,744.24078,785.98767,0.53866,12.53511,0.67050,-0.38948,-9.01228,8.12432,7.73483
38.80199,0.38015,0.62383,-0.55083,-0.29582,0.20380,0.88067,-0.03147,0.02073,2.22641,0.04277,-0.06411,2.33136,0.55574,-0.00073,-0.30000,-0.67050,-3.61216,744.24078,783.24420,0.53866,12.53514,0.67050,-0.39145,-9.10702,8.12432,7.73286
38.80300,0.38015,0.62383,-0.55083,-0.30361,0.19981,0.91733,-0.03147,0.02073,2.22641,0.04277,-0.06411,2.33136,0.55574,-0.00073,-0.30000,-0.67050,-3.61033,744.05163,783.24420,0.53849,12.53517,0.67050,-0.39341,-9.10702,8.12432,7.73090
38.80400,0.38015,0.62383,-0.55083,-0.30361,0.19981,0.91733,-0.03147,0.02073,2.22641,0.04277,-0.06411,2.33136,0.55574,-0.00073,-0.30000,-0.67050,-3.61033,744.05163,785.98767,0.53849,12.53522,0.67050,-0.39547,-9.15026,8.12432,7.72884
38.80500,0.38015,0.62383,-0.55083,-0.30252,0.19720,0.94767,-0.03147,0.02073,2.22641,0.04277,-0.06411,2.33136,0.55574,-0.00073,-0.30000,-0.67050,-3.60841,743.85412,785.98767,0.53830,12.53527,0.67050,-0.39752,-9.15026,8.12432,7.72679
38.80599,0.38015,0.62383,-0.55083,-0.30252,0.19720,0.94767,-0.03147,0.02073,2.22641,0.04277,-0.06411,2.33136,0.55574,-0.00073,-0.30000,-0.67050,-3.60841,743.85412,785.29998,0.53830,12.53533,0.67050,-0.39943,-9.08025,8.12432,7.72488
38.80699,0.38015,0.62383,-0.55083,-0.30081,0.20085,0.97678,-0.03147,0.02073,2.22641,0.04277,-0.06411,2.33136,0.55574,-0.00073,-0.30000,-0.67050,-3.60662,743.67004,785.29998,0.53813,12.53539,0.67050,-0.40134,-9.08025,8.12432,7.72297
38.80799,0.38015,0.62383,-0.55083,-0.30081,0.20085,0.97678,-0.03147,0.02073,2.22641,0.04277,-0.06411,2.33136,0.55574,-0.00073,-0.30000,-0.67050,-3.60662,743.67004,778.48907,0.53813,12.53547,0.67050,-0.40317,-9.03867,8.12432,7.72114
38.80899,0.37207,0.44909,-0.58528,-0.30663,0.20143,1.00487,-0.03027,0.01482,2.22641,0.03900,-0.06254,2.34010,0.55574,-0.00073,-0.30000,-0.67050,-3.60437,743.43811,785.29998,0.53791,12.53554,0.67050,-0.40500,-9.03867,8.12316,7.71815
38.81000,0.37207,0.44909,-0.58528,-0.30663,0.20143,1.00487,-0.03027,0.01482,2.22641,0.03900,-0.06254,2.34010,0.55574,-0.00073,-0.30000,-0.67050,-3.60437,743.43811,785.29998,0.53791,12.53563,0.67050,-0.40697,-9.10793,8.12316,7.71618
38.81100,0.37207,0.44909,-0.58528,-0.31246,0.19444,1.02623,-0.03027,0.01482,2.22641,0.03900,-0.06254,2.34010,0.55574,-0.00073,-0.30000,-0.67050,-3.60253,743.24835,785.29998,0.53772,12.53572,0.67050,-0.40894,-9.10800,8.12316,7.71421
38.81200,0.37207,0.44909,-0.58528,-0.31246,0.19444,1.02623,-0.03027,0.01482,2.22641,0.03900,-0.06254,2.34010,0.55574,-0.00073,-0.30000,-0.67050,-3.60253,743.24835,778.48907,0.53772,12.53583,0.67050,-0.41102,-9.16073,8.12316,7.71214
38.81299,0.37207,0.44909,-0.58528,-0.31111,0.19054,1.04136,-0.03027,0.01482,2.22641,0.03900,-0.06254,2.34010,0.55574,-0.00073,-0.30000,-0.67050,-3.60060,743.04833,785.29998,0.53753,12.53594,0.67050,-0.41309,-9.16073,8.12316,7.71006
38.81399,0.37207,0.44909,-0.58528,-0.31111,0.19054,1.04136,-0.03027,0.01482,2.22641,0.03900,-0.06254,2.34010,0.55574,-0.00073,-0.30000,-0.67050,-3.60060,743.04833,785.29998,0.53753,12.53605,0.67050,-0.41508,-9.11658,8.12316,7.70808
38.81499,0.37207,0.44909,-0.58528,-0.31079,0.19575,1.05753,-0.03027,0.01482,2.22641,0.03900,-0.06254,2.34010,0.55574,-0.00073,-0.30000,-0.67050,-3.59874,742.85687,785.29998,0.53734,12.53618,0.67050,-0.41706,-9.11658,8.12316,7.70609
38.81600,0.37207,0.44909,-0.58528,-0.31079,0.19575,1.05753,-0.03027,0.01482,2.22641,0.03900,-0.06254,2.34010,0.55574,-0.00073,-0.30000,-0.67050,-3.59874,742.85687,785.29998,0.53734,12.53632,0.67050,-0.41900,-9.08880,8.12316,7.70416
38.81700,0.37207,0.44909,-0.58528,-0.31820,0.20015,1.07549,-0.03027,0.01482,2.22641,0.03900,-0.06254,2.34010,0.55574,-0.00073,-0.30000,-0.67050,-3.59694,742.67071,785.29998,0.53716,12.53646,0.67050,-0.42093,-9.08880,8.12316,7.70223
38.81800,0.37207,0.44909,-0.58528,-0.31820,0.20015,1.07549,-0.03027,0.01482,2.22641,0.03900,-0.06254,2.34010,0.55574,-0.00073,-0.30000,-0.67050,-3.59694,742.67071,787.36657,0.53716,12.53661,0.67050,-0.42296,-9.13845,8.12316,7.70020
38.81900,0.13924,0.45076,-0.63481,-0.32368,0.19691,1.08830,-0.04206,0.01366,2.22641,0.03506,-0.06095,2.35037,0.55574,-0.00040,-0.30000,-0.67050,-3.59706,742.68365,787.36657,0.53716,12.53676,0.67050,-0.42498,-9.13845,8.12748,7.70249
38.81999,0.13924,0.45076,-0.63481,-0.32368,0.19691,1.08830,-0.04206,0.01366,2.22641,0.03506,-0.06095,2.35037,0.55574,-0.00040,-0.30000,-0.67050,-3.59706,742.68365,784.61352,0.53716,12.53693,0.67050,-0.42701,-9.14215,8.12748,7.70046
38.82099,0.13924,0.45076,-0.63481,-0.31884,0.19411,1.09484,-0.04206,0.01366,2.22641,0.03506,-0.06095,2.35037,0.55574,-0.00040,-0.30000,-0.67050,-3.59517,742.48791,779.84179,0.53696,12.53710,0.67050,-0.42904,-9.14215,8.12748,7.69844
38.82199,0.13924,0.45076,-0.63481,-0.31884,0.19411,1.09484,-0.04206,0.01366,2.22641,0.03506,-0.06095,2.35037,0.55574,-0.00040,-0.30000,-0.67050,-3.59517,742.48791,779.84179,0.53696,12.53728,0.67050,-0.43085,-9.03535,8.12748,7.69662
38.82300,0.13924,0.45076,-0.63481,-0.31281,0.19732,1.10164,-0.04206,0.01366,2.22641,0.03506,-0.06095,2.35037,0.55574,-0.00040,-0.30000,-0.67050,-3.59347,742.31280,784.61352,0.53679,12.53747,0.67050,-0.43267,-9.03535,8.12748,7.69480
38.82400,0.13924,0.45076,-0.63481,-0.31281,0.19732,1.10164,-0.04206,0.01366,2.22641,0.03506,-0.06095,2.35037,0.55574,-0.00040,-0.30000,-0.67050,-3.59347,742.31280,784.61352,0.53679,12.53768,0.67050,-0.43432,-8.95333,8.12748,7.69315
38.82500,0.13924,0.45076,-0.63481,-0.31508,0.19819,1.10991,-0.04206,0.01366,2.22641,0.03506,-0.06095,2.35037,0.55574,-0.00040,-0.30000,-0.67050,-3.59193,742.15344,779.84179,0.53662,12.53789,0.67050,-0.43597,-8.95333,8.12748,7.69150
38.82600,0.13924,0.45076,-0.63481,-0.31508,0.19819,1.10991,-0.04206,0.01366,2.22641,0.03506,-0.06095,2.35037,0.55574,-0.00040,-0.30000,-0.67050,-3.59193,742.15344,779.84179,0.53662,12.53810,0.67050,-0.43768,-8.98186,8.12748,7.68979
38.82699,0.13924,0.45076,-0.63481,-0.31803,0.19162,1.11390,-0.04206,0.01366,2.22641,0.03506,-0.06095,2.35037,0.55574,-0.00040,-0.30000,-0.67050,-3.59033,741.98852,779.84179,0.53645,12.53833,0.67050,-0.43939,-8.98186,8.12748,7.68808
38.82799,0.13924,0.45076,-0.63481,-0.31803,0.19162,1.11390,-0.04206,0.01366,2.22641,0.03506,-0.06095,2.35037,0.55574,-0.00040,-0.30000,-0.67050,-3.59033,741.98852,774.45892,0.53645,12.53857,0.67050,-0.44114,-9.00046,8.12748,7.68634
38.82899,0.35177,0.43100,-0.68706,-0.31279,0.18686,1.11331,-0.03677,0.01190,2.22641,0.03102,-0.05938,2.36132,0.55574,-0.00040,-0.30000,-0.67050,-3.58782,741.72924,774.45892,0.53619,12.53881,0.67050,-0.44289,-9.00046,8.12560,7.68271
38.83000,0.35177,0.43100,-0.68706,-0.31279,0.18686,1.11331,-0.03677,0.01190,2.22641,0.03102,-0.05938,2.36132,0.55574,-0.00040,-0.30000,-0.67050,-3.58782,741.72924,773.79132,0.53619,12.53906,0.67050,-0.44449,-8.92881,8.12560,7.68110
38.83100,0.35177,0.43100,-0.68706,-0.30682,0.18988,1.11484,-0.03677,0.01190,2.22641,0.03102,-0.05938,2.36132,0.55574,-0.00040,-0.30000,-0.67050,-3.58632,741.57415,771.13220,0.53603,12.53933,0.67019,-0.44610,-8.92885,8.12560,7.67950
38.83200,0.35177,0.43100,-0.68706,-0.30682,0.18988,1.11484,-0.03677,0.01190,2.22641,0.03102,-0.05938,2.36132,0.55574,-0.00040,-0.30000,-0.67050,-3.58632,741.57415,769.80950,0.53603,12.53960,0.67019,-0.44762,-8.88427,8.12560,7.67798
38.83300,0.35177,0.43100,-0.68706,-0.30877,0.19159,1.11930,-0.03677,0.01190,2.22641,0.03102,-0.05938,2.36132,0.55574,-0.00040,-0.30000,-0.67050,-3.58491,741.42755,771.13220,0.53587,12.53987,0.67019,-0.44913,-8.88427,8.12560,7.67646
38.83399,0.35177,0.43100,-0.68706,-0.30877,0.19159,1.11930,-0.03677,0.01190,2.22641,0.03102,-0.05938,2.36132,0.55574,-0.00040,-0.30000,-0.67050,-3.58491,741.42755,771.13220,0.53587,12.54016,0.67019,-0.45077,-8.94480,8.12560,7.67482
38.83499,0.35177,0.43100,-0.68706,-0.31077,0.18529,1.11966,-0.03677,0.01190,2.22641,0.03102,-0.05938,2.36132,0.55574,-0.00040,-0.30000,-0.67050,-3.58337,741.26928,770.47027,0.53570,12.54045,0.67019,-0.45241,-8.94480,8.12560,7.67319
38.83599,0.35177,0.43100,-0.68706,-0.31077,0.18529,1.11966,-0.03677,0.01190,2.22641,0.03102,-0.05938,2.36132,0.55574,-0.00040,-0.30000,-0.67050,-3.58337,741.26928,771.13220,0.53570,12.54076,0.67019,-0.45414,-8.99202,8.12560,7.67145
38.83700,0.35177,0.43100,-0.68706,-0.30372,0.17932,1.11438,-0.03677,0.01190,2.22641,0.03102,-0.05938,2.36132,0.55574,-0.00040,-0.30000,-0.67050,-3.58176,741.10186,771.13220,0.53552,12.54107,0.67019,-0.45588,-8.99202,8.12560,7.66972
38.83800,0.35177,0.43100,-0.68706,-0.30372,0.17932,1.11438,-0.03677,0.01190,2.22641,0.03102,-0.05938,2.36132,0.55574,-0.00040,-0.30000,-0.67050,-3.58176,741.10186,771.13220,0.53552,12.54140,0.67019,-0.45750,-8.93919,8.12560,7.66809
38.83900,0.25069,0.53596,-0.74369,-0.29580,0.18039,1.11023,-0.04241,0.01662,2.22641,0.02709,-0.05773,2.37244,0.55529,0.01355,-0.30000,-0.67019,-3.60159,743.15130,771.13220,0.53738,12.54173,0.67019,-0.45904,-8.93919,8.17124,7.71220
38.84000,0.25069,0.53596,-0.74369,-0.29580,0.18039,1.11023,-0.04241,0.01662,2.22641,0.02709,-0.05773,2.37244,0.55529,0.01355,-0.30000,-0.67019,-3.60159,743.15130,770.47027,0.53738,12.54208,0.67019,-0.46050,-8.90249,8.17124,7.71074
38.84099,0.25069,0.53596,-0.74369,-0.29711,0.18039,1.10920,-0.04241,0.01662,2.22641,0.02709,-0.05773,2.37244,0.55529,0.01355,-0.30000,-0.67019,-3.60023,743.01037,770.47027,0.53722,12.54243,0.66960,-0.46196,-8.90249,8.17124,7.70927
38.84199,0.25069,0.53596,-0.74369,-0.29711,0.18039,1.10920,-0.04241,0.01662,2.22641,0.02709,-0.05773,2.37244,0.55529,0.01355,-0.30000,-0.67019,-3.60023,743.01037,771.13220,0.53722,12.54279,0.66960,-0.46357,-8.97235,8.17124,7.70767
38.84299,0.25069,0.53596,-0.74369,-0.30004,0.17265,1.10538,-0.04241,0.01662,2.22641,0.02709,-0.05773,2.37244,0.55529,0.01355,-0.30000,-0.67019,-3.59873,742.85595,771.13220,0.53704,12.54317,0.66960,-0.46517,-8.97235,8.17124,7.70607
38.84400,0.25069,0.53596,-0.74369,-0.30004,0.17265,1.10538,-0.04241,0.01662,2.22641,0.02709,-0.05773,2.37244,0.55529,0.01355,-0.30000,-0.67019,-3.59873,742.85595,771.13220,0.53704,12.54355,0.66960,-0.46689,-9.02967,8.17124,7.70435
38.84500,0.25069,0.53596,-0.74369,-0.29383,0.16581,1.09730,-0.04241,0.01662,2.22641,0.02709,-0.05773,2.37244,0.55529,0.01355,-0.30000,-0.67019,-3.59713,742.69049,771.13220,0.53686,12.54394,0.66960,-0.46860,-9.02967,8.17124,7.70264
38.84600,0.25069,0.53596,-0.74369,-0.29383,0.16581,1.09730,-0.04241,0.01662,2.22641,0.02709,-0.05773,2.37244,0.55529,0.01355,-0.30000,-0.67019,-3.59713,742.69049,773.12475,0.53686,12.54434,0.66960,-0.47021,-8.97589,8.17124,7.70103
38.84700,0.25069,0.53596,-0.74369,-0.28515,0.16780,1.09080,-0.04241,0.01662,2.22641,0.02709,-0.05773,2.37244,0.55529,0.01355,-0.30000,-0.67019,-3.59563,742.53527,773.12475,0.53668,12.54476,0.66960,-0.47182,-8.97589,8.17124,7.69942
38.84799,0.25069,0.53596,-0.74369,-0.28515,0.16780,1.09080,-0.04241,0.01662,2.22641,0.02709,-0.05773,2.37244,0.55529,0.01355,-0.30000,-0.67019,-3.59563,742.53527,770.47027,0.53668,12.54518,0.66960,-0.47333,-8.92545,8.17124,7.69791
38.84899,0.25580,0.56603,-0.79734,-0.28521,0.17081,1.08655,-0.04544,0.02026,2.22641,0.02331,-0.05613,2.38345,0.55439,0.03042,-0.30000,-0.66960,-3.61996,745.04394,769.80950,0.53895,12.54561,0.66960,-0.47473,-8.92545,8.22626,7.75153
38.84999,0.25580,0.56603,-0.79734,-0.28521,0.17081,1.08655,-0.04544,0.02026,2.22641,0.02331,-0.05613,2.38345,0.55439,0.03042,-0.30000,-0.66960,-3.61996,745.04394,770.47027,0.53895,12.54606,0.66960,-0.47626,-8.99402,8.22626,7.74999
38.85100,0.25580,0.56603,-0.79734,-0.28837,0.16654,1.07723,-0.04544,0.02026,2.22641,0.02331,-0.05613,2.38345,0.55439,0.03042,-0.30000,-0.66960,-3.61853,744.89630,770.47027,0.53878,12.54651,0.66869,-0.47780,-8.99404,8.22626,7.74846
38.85200,0.25580,0.56603,-0.79734,-0.28837,0.16654,1.07723,-0.04544,0.02026,2.22641,0.02331,-0.05613,2.38345,0.55439,0.03042,-0.30000,-0.66960,-3.61853,744.89630,770.47027,0.53878,12.54698,0.66869,-0.47950,-9.07874,8.22626,7.74675
38.85300,0.25580,0.56603,-0.79734,-0.28387,0.16187,1.06101,-0.04544,0.02026,2.22641,0.02331,-0.05613,2.38345,0.55439,0.03042,-0.30000,-0.66960,-3.61694,744.73236,772.45947,0.53858,12.54745,0.66869,-0.48121,-9.07874,8.22626,7.74505
38.85400,0.25580,0.56603,-0.79734,-0.28387,0.16187,1.06101,-0.04544,0.02026,2.22641,0.02331,-0.05613,2.38345,0.55439,0.03042,-0.30000,-0.66960,-3.61694,744.73236,772.45947,0.53858,12.54794,0.66869,-0.48286,-9.04922,8.22626,7.74340
38.85499,0.25580,0.56603,-0.79734,-0.27726,0.16480,1.04561,-0.04544,0.02026,2.22641,0.02331,-0.05613,2.38345,0.55439,0.03042,-0.30000,-0.66960,-3.61540,744.57409,772.45947,0.53840,12.54844,0.66869,-0.48450,-9.04922,8.22626,7.74176
38.85599,0.25580,0.56603,-0.79734,-0.27726,0.16480,1.04561,-0.04544,0.02026,2.22641,0.02331,-0.05613,2.38345,0.55439,0.03042,-0.30000,-0.66960,-3.61540,744.57409,774.45892,0.53840,12.54894,0.66869,-0.48605,-9.00273,8.22626,7.74020
38.85699,0.25580,0.56603,-0.79734,-0.27933,0.16815,1.03478,-0.04544,0.02026,2.22641,0.02331,-0.05613,2.38345,0.55439,0.03042,-0.30000,-0.66960,-3.61395,744.42474,774.45892,0.53822,12.54946,0.66869,-0.48761,-9.00273,8.22626,7.73865
38.85800,0.25580,0.56603,-0.79734,-0.27933,0.16815,1.03478,-0.04544,0.02026,2.22641,0.02331,-0.05613,2.38345,0.55439,0.03042,-0.30000,-0.66960,-3.61395,744.42474,1214.61145,0.53822,12.54998,0.66869,-0.48930,-9.07159,8.22626,7.73696
38.85900,0.42201,0.44984,-0.84649,-0.28412,0.16335,1.02257,-0.03986,0.01669,2.22641,0.01968,-0.05459,2.39416,0.55304,0.04572,-0.30000,-0.66869,-3.63459,746.54815,1214.61145,0.54012,12.55052,0.66869,-0.49089,-9.07159,8.27376,7.78286
38.86000,0.42201,0.44984,-0.84649,-0.28412,0.16335,1.02257,-0.03986,0.01669,2.22641,0.01968,-0.05459,2.39416,0.55304,0.04572,-0.30000,-0.66869,-3.63459,746.54815,1214.61145,0.54012,12.55106,0.66869,-0.49264,-9.14651,8.27376,7.78112
38.86100,0.42201,0.44984,-0.84649,-0.27930,0.15784,1.00555,-0.03986,0.01669,2.22641,0.01968,-0.05459,2.39416,0.55304,0.04572,-0.30000,-0.66869,-3.63296,746.38073,1214.61145,0.53992,12.55162,0.66869,-0.49438,-9.14651,8.27376,7.77937
38.86199,0.42201,0.44984,-0.84649,-0.27930,0.15784,1.00555,-0.03986,0.01669,2.22641,0.01968,-0.05459,2.39416,0.55304,0.04572,-0.30000,-0.66869,-3.63296,746.38073,1214.61145,0.53992,12.55219,0.66869,-0.49599,-9.07864,8.27376,7.77776
38.86299,0.42201,0.44984,-0.84649,-0.26980,0.16183,0.98902,-0.03986,0.01669,2.22641,0.01968,-0.05459,2.39416,0.55304,0.04572,-0.30000,-0.66869,-3.63146,746.22625,1214.61145,0.53973,12.55276,0.66869,-0.49760,-9.07864,8.27376,7.77615
38.86399,0.42201,0.44984,-0.84649,-0.26980,0.16183,0.98902,-0.03986,0.01669,2.22641,0.01968,-0.05459,2.39416,0.55304,0.04572,-0.30000,-0.66869,-3.63146,746.22625,776.46875,0.53973,12.55335,0.66869,-0.49901,-8.97484,8.27376,7.77475
38.86500,0.42201,0.44984,-0.84649,-0.26916,0.16904,0.97524,-0.03986,0.01669,2.22641,0.01968,-0.05459,2.39416,0.55304,0.04572,-0.30000,-0.66869,-3.63015,746.09173,776.46875,0.53955,12.55395,0.66869,-0.50041,-8.97484,8.27376,7.77335
38.86600,0.42201,0.44984,-0.84649,-0.26916,0.16904,0.97524,-0.03986,0.01669,2.22641,0.01968,-0.05459,2.39416,0.55304,0.04572,-0.30000,-0.66869,-3.63015,746.09173,770.47027,0.53955,12.55456,0.66869,-0.50187,-9.00579,8.27376,7.77188
38.86700,0.42201,0.44984,-0.84649,-0.27471,0.16830,0.95745,-0.03986,0.01669,2.22641,0.01968,-0.05459,2.39416,0.55304,0.04572,-0.30000,-0.66869,-3.62878,745.95117,769.80950,0.53937,12.55518,0.66869,-0.50334,-9.00579,8.27376,7.77042
38.86800,0.42201,0.44984,-0.84649,-0.27471,0.16830,0.95745,-0.03986,0.01669,2.22641,0.01968,-0.05459,2.39416,0.55304,0.04572,-0.30000,-0.66869,-3.62878,745.95117,767.17767,0.53937,12.55581,0.66869,-0.50496,-9.08489,8.27376,7.76880
38.86899,0.44741,0.42603,-0.89475,-0.27385,0.16344,0.93202,-0.03774,0.01492,2.22641,0.01619,-0.05304,2.40421,0.55304,0.04572,-0.30000,-0.66869,-3.62684,745.75152,767.17767,0.53913,12.55645,0.66869,-0.50658,-9.08489,8.27285,7.76626
38.86999,0.44741,0.42603,-0.89475,-0.27385,0.16344,0.93202,-0.03774,0.01492,2.22641,0.01619,-0.05304,2.40421,0.55304,0.04572,-0.30000,-0.66869,-3.62684,745.75152,767.17767,0.53913,12.55710,0.66869,-0.50809,-9.02796,8.27285,7.76475
38.87099,0.44741,0.42603,-0.89475,-0.26863,0.16432,0.90585,-0.03774,0.01492,2.22641,0.01619,-0.05304,2.40421,0.55304,0.04572,-0.30000,-0.66869,-3.62543,745.60644,767.17767,0.53894,12.55776,0.66799,-0.50960,-9.02799,8.27285,7.76324
38.87200,0.44741,0.42603,-0.89475,-0.26863,0.16432,0.90585,-0.03774,0.01492,2.22641,0.01619,-0.05304,2.40421,0.55304,0.04572,-0.30000,-0.66869,-3.62543,745.60644,767.17767,0.53894,12.55844,0.66799,-0.51085,-8.89380,8.27285,7.76200
38.87300,0.44741,0.42603,-0.89475,-0.27086,0.16736,0.88433,-0.03774,0.01492,2.22641,0.01619,-0.05304,2.40421,0.55304,0.04572,-0.30000,-0.66869,-3.62427,745.48718,767.17767,0.53878,12.55911,0.66799,-0.51209,-8.89380,8.27285,7.76076
38.87400,0.44741,0.42603,-0.89475,-0.27086,0.16736,0.88433,-0.03774,0.01492,2.22641,0.01619,-0.05304,2.40421,0.55304,0.04572,-0.30000,-0.66869,-3.62427,745.48718,765.86853,0.53878,12.55980,0.66799,-0.51326,-8.85943,8.27285,7.75958
38.87500,0.44741,0.42603,-0.89475,-0.27790,0.16346,0.86259,-0.03774,0.01492,2.22641,0.01619,-0.05304,2.40421,0.55304,0.04572,-0.30000,-0.66869,-3.62317,745.37451,767.17767,0.53861,12.56050,0.66799,-0.51443,-8.85943,8.27285,7.75841
38.87599,0.44741,0.42603,-0.89475,-0.27790,0.16346,0.86259,-0.03774,0.01492,2.22641,0.01619,-0.05304,2.40421,0.55304,0.04572,-0.30000,-0.66869,-3.62317,745.37451,765.21557,0.53861,12.56121,0.66799,-0.51563,-8.87304,8.27285,7.75721
38.87699,0.44741,0.42603,-0.89475,-0.27685,0.15706,0.83626,-0.03774,0.01492,2.22641,0.01619,-0.05304,2.40421,0.55304,0.04572,-0.30000,-0.66869,-3.62205,745.25915,771.79522,0.53845,12.56192,0.66799,-0.51683,-8.87304,8.27285,7.75601
38.87799,0.44741,0.42603,-0.89475,-0.27685,0.15706,0.83626,-0.03774,0.01492,2.22641,0.01619,-0.05304,2.40421,0.55304,0.04572,-0.30000,-0.66869,-3.62205,745.25915,771.79522,0.53845,12.56265,0.66799,-0.51779,-8.74856,8.27285,7.75506
38.87900,0.44890,0.50050,-0.94007,-0.26941,0.15839,0.81019,-0.03706,0.01810,2.22641,0.01287,-0.05129,2.41337,0.55199,0.06027,-0.30000,-0.66799,-3.64318,747.42895,771.79522,0.54038,12.56339,0.66799,-0.51864,-8.74856,8.31989,7.80124
38.88000,0.44890,0.50050,-0.94007,-0.26941,0.15839,0.81019,-0.03706,0.01810,2.22641,0.01287,-0.05129,2.41337,0.55199,0.06027,-0.30000,-0.66799,-3.64318,747.42895,772.45947,0.54038,12.56413,0.66799,-0.51907,-8.53557,8.31989,7.80081
38.88100,0.44890,0.50050,-0.94007,-0.26907,0.16334,0.78825,-0.03706,0.01810,2.22641,0.01287,-0.05129,2.41337,0.55199,0.06027,-0.30000,-0.66799,-3.64277,747.38757,772.45947,0.54027,12.56489,0.66799,-0.51951,-8.53587,8.31989,7.80037
38.88199,0.44890,0.50050,-0.94007,-0.26907,0.16334,0.78825,-0.03706,0.01810,2.22641,0.01287,-0.05129,2.41337,0.55199,0.06027,-0.30000,-0.66799,-3.64277,747.38757,768.49133,0.54027,12.56566,0.66799,-0.51977,-8.45264,8.31989,7.80011
38.88299,0.44890,0.50050,-0.94007,-0.27576,0.16024,0.76465,-0.03706,0.01810,2.22641,0.01287,-0.05129,2.41337,0.55199,0.06027,-0.30000,-0.66799,-3.64252,747.36212,771.13220,0.54018,12.56644,0.66799,-0.52004,-8.45264,8.31989,7.79984
38.88399,0.44890,0.50050,-0.94007,-0.27576,0.16024,0.76465,-0.03706,0.01810,2.22641,0.01287,-0.05129,2.41337,0.55199,0.06027,-0.30000,-0.66799,-3.64252,747.36212,768.49133,0.54018,12.56723,0.66799,-0.52035,-8.47647,8.31989,7.79953
38.88499,0.44890,0.50050,-0.94007,-0.27674,0.15140,0.73444,-0.03706,0.01810,2.22641,0.01287,-0.05129,2.41337,0.55199,0.06027,-0.30000,-0.66799,-3.64223,747.33215,768.49133,0.54009,12.56803,0.66799,-0.52066,-8.47647,8.31989,7.79922
38.88600,0.44890,0.50050,-0.94007,-0.27674,0.15140,0.73444,-0.03706,0.01810,2.22641,0.01287,-0.05129,2.41337,0.55199,0.06027,-0.30000,-0.66799,-3.64223,747.33215,771.13220,0.54009,12.56884,0.66799,-0.52079,-8.38544,8.31989,7.79909
38.88700,0.44890,0.50050,-0.94007,-0.27187,0.14861,0.70355,-0.03706,0.01810,2.22641,0.01287,-0.05129,2.41337,0.55199,0.06027,-0.30000,-0.66799,-3.64211,747.31951,771.13220,0.54001,12.56966,0.66799,-0.52093,-8.38544,8.31989,7.79895
38.88800,0.44890,0.50050,-0.94007,-0.27187,0.14861,0.70355,-0.03706,0.01810,2.22641,0.01287,-0.05129,2.41337,0.55199,0.06027,-0.30000,-0.66799,-3.64211,747.31951,772.45947,0.54001,12.57049,0.66799,-0.52065,-8.18195,8.31989,7.79923
38.88899,0.46267,0.43583,-0.97743,-0.27396,0.15085,0.67863,-0.03646,0.01610,2.22641,0.00960,-0.04954,2.42129,0.55199,0.06027,-0.30000,-0.66799,-3.64215,747.32348,771.13220,0.53994,12.57133,0.66799,-0.52038,-8.18195,8.31942,7.79904
38.88999,0.46267,0.43583,-0.97743,-0.27396,0.15085,0.67863,-0.03646,0.01610,2.22641,0.00960,-0.04954,2.42129,0.55199,0.06027,-0.30000,-0.66799,-3.64215,747.32348,771.13220,0.53994,12.57218,0.66799,-0.51990,-8.08175,8.31942,7.79951
38.89099,0.46267,0.43583,-0.97743,-0.28335,0.14693,0.65560,-0.03646,0.01610,2.22641,0.00960,-0.04954,2.42129,0.55199,0.06027,-0.30000,-0.66799,-3.64259,747.36907,771.13220,0.53991,12.57303,0.66639,-0.51942,-8.08175,8.31942,7.79999
38.89199,0.46267,0.43583,-0.97743,-0.28335,0.14693,0.65560,-0.03646,0.01610,2.22641,0.00960,-0.04954,2.42129,0.55199,0.06027,-0.30000,-0.66799,-3.64259,747.36907,771.13220,0.53991,12.57389,0.66639,-0.51897,-8.09111,8.31942,7.80044
38.89300,0.46267,0.43583,-0.97743,-0.28604,0.13757,0.62836,-0.03646,0.01610,2.22641,0.00960,-0.04954,2.42129,0.55199,0.06027,-0.30000,-0.66799,-3.64302,747.41278,772.45947,0.53987,12.57475,0.66639,-0.51851,-8.09111,8.31942,7.80090
38.89400,0.46267,0.43583,-0.97743,-0.28604,0.13757,0.62836,-0.03646,0.01610,2.22641,0.00960,-0.04954,2.42129,0.55199,0.06027,-0.30000,-0.66799,-3.64302,747.41278,775.12774,0.53987,12.57563,0.66639,-0.51786,-7.99489,8.31942,7.80155
38.89500,0.46267,0.43583,-0.97743,-0.27942,0.13426,0.60074,-0.03646,0.01610,2.22641,0.00960,-0.04954,2.42129,0.55199,0.06027,-0.30000,-0.66799,-3.64362,747.47497,775.12774,0.53986,12.57651,0.66639,-0.51721,-7.99489,8.31942,7.80220
38.89599,0.46267,0.43583,-0.97743,-0.27942,0.13426,0.60074,-0.03646,0.01610,2.22641,0.00960,-0.04954,2.42129,0.55199,0.06027,-0.30000,-0.66799,-3.64362,747.47497,772.45947,0.53986,12.57739,0.66639,-0.51613,-7.77606,8.31942,7.80328
38.89699,0.46267,0.43583,-0.97743,-0.27679,0.13716,0.57898,-0.03646,0.01610,2.22641,0.00960,-0.04954,2.42129,0.55199,0.06027,-0.30000,-0.66799,-3.64464,747.57904,771.13220,0.53987,12.57828,0.66639,-0.51504,-7.77606,8.31942,7.80437
38.89799,0.46267,0.43583,-0.97743,-0.27679,0.13716,0.57898,-0.03646,0.01610,2.22641,0.00960,-0.04954,2.42129,0.55199,0.06027,-0.30000,-0.66799,-3.64464,747.57904,769.80950,0.53987,12.57919,0.66639,-0.51369,-7.64437,8.31942,7.80572
38.89899,0.49991,0.40995,-1.00878,-0.28214,0.13462,0.55931,-0.03493,0.01452,2.22641,0.00633,-0.04784,2.42788,0.54959,0.08578,-0.30000,-0.66639,-3.68480,751.68670,769.80950,0.54356,12.58009,0.66639,-0.51217,-7.64437,8.40255,7.89037
38.90000,0.49991,0.40995,-1.00878,-0.28214,0.13462,0.55931,-0.03493,0.01452,2.22641,0.00633,-0.04784,2.42788,0.54959,0.08578,-0.30000,-0.66639,-3.68480,751.68670,769.80950,0.54356,12.58101,0.66639,-0.51065,-7.63849,8.40255,7.89190
38.90100,0.49991,0.40995,-1.00878,-0.28310,0.12502,0.53454,-0.03493,0.01452,2.22641,0.00633,-0.04784,2.42788,0.54959,0.08578,-0.30000,-0.66639,-3.68623,751.83227,769.80950,0.54362,12.58193,0.66449,-0.50912,-7.63849,8.40255,7.89343
38.90200,0.49991,0.40995,-1.00878,-0.28310,0.12502,0.53454,-0.03493,0.01452,2.22641,0.00633,-0.04784,2.42788,0.54959,0.08578,-0.30000,-0.66639,-3.68623,751.83227,769.80950,0.54362,12.58285,0.66449,-0.50748,-7.58449,8.40255,7.89506
38.90299,0.49991,0.40995,-1.00878,-0.27536,0.11916,0.50739,-0.03493,0.01452,2.22641,0.00633,-0.04784,2.42788,0.54959,0.08578,-0.30000,-0.66639,-3.68776,751.98809,769.80950,0.54368,12.58379,0.66449,-0.50584,-7.58449,8.40255,7.89670
38.90399,0.49991,0.40995,-1.00878,-0.27536,0.11916,0.50739,-0.03493,0.01452,2.22641,0.00633,-0.04784,2.42788,0.54959,0.08578,-0.30000,-0.66639,-3.68776,751.98809,769.80950,0.54368,12.58473,0.66449,-0.50396,-7.45997,8.40255,7.89859
38.90499,0.49991,0.40995,-1.00878,-0.27172,0.11924,0.48492,-0.03493,0.01452,2.22641,0.00633,-0.04784,2.42788,0.54959,0.08578,-0.30000,-0.66639,-3.68952,752.16760,769.14984,0.54376,12.58568,0.66449,-0.50207,-7.45997,8.40255,7.90047
38.90599,0.49991,0.40995,-1.00878,-0.27172,0.11924,0.48492,-0.03493,0.01452,2.22641,0.00633,-0.04784,2.42788,0.54959,0.08578,-0.30000,-0.66639,-3.68952,752.16760,769.14984,0.54376,12.58663,0.66449,-0.50015,-7.44265,8.40255,7.90239
38.90700,0.49991,0.40995,-1.00878,-0.27808,0.11533,0.46483,-0.03493,0.01452,2.22641,0.00633,-0.04784,2.42788,0.54959,0.08578,-0.30000,-0.66639,-3.69131,752.35040,769.14984,0.54385,12.58759,0.66449,-0.49823,-7.44265,8.40255,7.90431
38.90800,0.49991,0.40995,-1.00878,-0.27808,0.11533,0.46483,-0.03493,0.01452,2.22641,0.00633,-0.04784,2.42788,0.54959,0.08578,-0.30000,-0.66639,-3.69131,752.35040,769.14984,0.54385,12.58855,0.66449,-0.49654,-7.55727,8.40255,7.90600
38.90900,0.61245,0.46704,-1.03423,-0.28205,0.10586,0.43977,-0.02915,0.01687,2.22641,0.00308,-0.04631,2.43319,0.54674,0.11044,-0.30000,-0.66449,-3.73096,756.37994,767.17767,0.54746,12.58952,0.66449,-0.49469,-7.55727,8.48390,7.98921
38.90999,0.61245,0.46704,-1.03423,-0.28205,0.10586,0.43977,-0.02915,0.01687,2.22641,0.00308,-0.04631,2.43319,0.54674,0.11044,-0.30000,-0.66449,-3.73096,756.37994,767.17767,0.54746,12.59050,0.66449,-0.49295,-7.61176,8.48390,7.99095
38.91099,0.61245,0.46704,-1.03423,-0.27605,0.10203,0.41130,-0.02915,0.01687,2.22641,0.00308,-0.04631,2.43319,0.54674,0.11044,-0.30000,-0.66449,-3.73259,756.54510,767.83392,0.54752,12.59148,0.66449,-0.49120,-7.61175,8.48390,7.99270
38.91199,0.61245,0.46704,-1.03423,-0.27605,0.10203,0.41130,-0.02915,0.01687,2.22641,0.00308,-0.04631,2.43319,0.54674,0.11044,-0.30000,-0.66449,-3.73259,756.54510,767.83392,0.54752,12.59247,0.66449,-0.48933,-7.54715,8.48390,7.99457
38.91299,0.61245,0.46704,-1.03423,-0.27091,0.10664,0.38679,-0.02915,0.01687,2.22641,0.00308,-0.04631,2.43319,0.54674,0.11044,-0.30000,-0.66449,-3.73434,756.72241,767.83392,0.54760,12.59347,0.66449,-0.48746,-7.54715,8.48390,7.99644
38.91400,0.61245,0.46704,-1.03423,-0.27091,0.10664,0.38679,-0.02915,0.01687,2.22641,0.00308,-0.04631,2.43319,0.54674,0.11044,-0.30000,-0.66449,-3.73434,756.72241,768.49133,0.54760,12.59446,0.66449,-0.48554,-7.52434,8.48390,7.99836
38.91500,0.61245,0.46704,-1.03423,-0.27435,0.10799,0.36538,-0.02915,0.01687,2.22641,0.00308,-0.04631,2.43319,0.54674,0.11044,-0.30000,-0.66449,-3.73613,756.90399,768.49133,0.54768,12.59547,0.66449,-0.48362,-7.52434,8.48390,8.00028
38.91600,0.61245,0.46704,-1.03423,-0.27435,0.10799,0.36538,-0.02915,0.01687,2.22641,0.00308,-0.04631,2.43319,0.54674,0.11044,-0.30000,-0.66449,-3.73613,756.90399,768.49133,0.54768,12.59648,0.66449,-0.48187,-7.61116,8.48390,8.00203
38.91699,0.61245,0.46704,-1.03423,-0.27586,0.10091,0.33954,-0.02915,0.01687,2.22641,0.00308,-0.04631,2.43319,0.54674,0.11044,-0.30000,-0.66449,-3.73776,757.06909,769.14984,0.54774,12.59750,0.66449,-0.48013,-7.61116,8.48390,8.00377
38.91799,0.61245,0.46704,-1.03423,-0.27586,0.10091,0.33954,-0.02915,0.01687,2.22641,0.00308,-0.04631,2.43319,0.54674,0.11044,-0.30000,-0.66449,-3.73776,757.06909,768.49133,0.54774,12.59852,0.66449,-0.47852,-7.68058,8.48390,8.00538
38.91899,0.52943,0.42716,-1.05354,-0.26698,0.09523,0.30912,-0.03159,0.01571,2.22641,-0.00005,-0.04498,2.43734,0.54674,0.11044,-0.30000,-0.66449,-3.73948,757.24316,769.14984,0.54781,12.59954,0.66449,-0.47691,-7.68058,8.48437,8.00745
38.91999,0.52943,0.42716,-1.05354,-0.26698,0.09523,0.30912,-0.03159,0.01571,2.22641,-0.00005,-0.04498,2.43734,0.54674,0.11044,-0.30000,-0.66449,-3.73948,757.24316,769.14984,0.54781,12.60057,0.66449,-0.47530,-7.67810,8.48437,8.00907
38.92100,0.52943,0.42716,-1.05354,-0.25789,0.09653,0.28103,-0.03159,0.01571,2.22641,-0.00005,-0.04498,2.43734,0.54674,0.11044,-0.30000,-0.66449,-3.74098,757.39569,769.80950,0.54786,12.60161,0.66209,-0.47369,-7.67811,8.48437,8.01068
38.92200,0.52943,0.42716,-1.05354,-0.25789,0.09653,0.28103,-0.03159,0.01571,2.22641,-0.00005,-0.04498,2.43734,0.54674,0.11044,-0.30000,-0.66449,-3.74098,757.39569,770.47027,0.54786,12.60265,0.66209,-0.47217,-7.72615,8.48437,8.01220
38.92300,0.52943,0.42716,-1.05354,-0.25804,0.09636,0.25525,-0.03159,0.01571,2.22641,-0.00005,-0.04498,2.43734,0.54674,0.11044,-0.30000,-0.66449,-3.74240,757.53900,770.47027,0.54790,12.60369,0.66209,-0.47065,-7.72615,8.48437,8.01371
38.92399,0.52943,0.42716,-1.05354,-0.25804,0.09636,0.25525,-0.03159,0.01571,2.22641,-0.00005,-0.04498,2.43734,0.54674,0.11044,-0.30000,-0.66449,-3.74240,757.53900,770.47027,0.54790,12.60474,0.66209,-0.46944,-7.87977,8.48437,8.01492
38.92499,0.52943,0.42716,-1.05354,-0.25803,0.08994,0.22439,-0.03159,0.01571,2.22641,-0.00005,-0.04498,2.43734,0.54674,0.11044,-0.30000,-0.66449,-3.74353,757.65338,769.80950,0.54791,12.60580,0.66209,-0.46824,-7.87977,8.48437,8.01613
38.92599,0.52943,0.42716,-1.05354,-0.25803,0.08994,0.22439,-0.03159,0.01571,2.22641,-0.00005,-0.04498,2.43734,0.54674,0.11044,-0.30000,-0.66449,-3.74353,757.65338,767.17767,0.54791,12.60686,0.66209,-0.46727,-8.00284,8.48437,8.01709
38.92699,0.52943,0.42716,-1.05354,-0.24804,0.08631,0.18812,-0.03159,0.01571,2.22641,-0.00005,-0.04498,2.43734,0.54674,0.11044,-0.30000,-0.66449,-3.74443,757.74438,767.17767,0.54790,12.60792,0.66209,-0.46631,-8.00284,8.48437,8.01806
38.92800,0.52943,0.42716,-1.05354,-0.24804,0.08631,0.18812,-0.03159,0.01571,2.22641,-0.00005,-0.04498,2.43734,0.54674,0.11044,-0.30000,-0.66449,-3.74443,757.74438,769.80950,0.54790,12.60899,0.66209,-0.46536,-8.01162,8.48437,8.01900
38.92900,0.61476,0.31065,-1.06710,-0.23749,0.09073,0.15477,-0.02815,0.00951,2.22641,-0.00301,-0.04372,2.44022,0.54314,0.13377,-0.30000,-0.66209,-3.78241,761.57769,765.86853,0.55132,12.61007,0.66209,-0.46426,-8.01162,8.56365,8.09939
38.93000,0.61476,0.31065,-1.06710,-0.23749,0.09073,0.15477,-0.02815,0.00951,2.22641,-0.00301,-0.04372,2.44022,0.54314,0.13377,-0.30000,-0.66209,-3.78241,761.57769,765.86853,0.55132,12.61114,0.66209,-0.46318,-8.02317,8.56365,8.10047
38.93099,0.61476,0.31065,-1.06710,-0.23741,0.09365,0.12669,-0.02815,0.00951,2.22641,-0.00301,-0.04372,2.44022,0.54314,0.13377,-0.30000,-0.66209,-3.78342,761.67938,765.86853,0.55132,12.61223,0.66209,-0.46210,-8.02315,8.56365,8.10155
38.93199,0.61476,0.31065,-1.06710,-0.23741,0.09365,0.12669,-0.02815,0.00951,2.22641,-0.00301,-0.04372,2.44022,0.54314,0.13377,-0.30000,-0.66209,-3.78342,761.67938,765.86853,0.55132,12.61332,0.66209,-0.46124,-8.13271,8.56365,8.10241
38.93299,0.61476,0.31065,-1.06710,-0.23925,0.08814,0.09727,-0.02815,0.00951,2.22641,-0.00301,-0.04372,2.44022,0.54314,0.13377,-0.30000,-0.66209,-3.78423,761.76037,765.86853,0.55129,12.61441,0.66209,-0.46037,-8.13271,8.56365,8.10327
38.93399,0.61476,0.31065,-1.06710,-0.23925,0.08814,0.09727,-0.02815,0.00951,2.22641,-0.00301,-0.04372,2.44022,0.54314,0.13377,-0.30000,-0.66209,-3.78423,761.76037,764.56378,0.55129,12.61551,0.66209,-0.45973,-8.24163,8.56365,8.10392
38.93500,0.61476,0.31065,-1.06710,-0.23048,0.08270,0.06473,-0.02815,0.00951,2.22641,-0.00301,-0.04372,2.44022,0.54314,0.13377,-0.30000,-0.66209,-3.78483,761.82092,765.86853,0.55125,12.61661,0.66209,-0.45909,-8.24163,8.56365,8.10456
38.93600,0.61476,0.31065,-1.06710,-0.23048,0.08270,0.06473,-0.02815,0.00951,2.22641,-0.00301,-0.04372,2.44022,0.54314,0.13377,-0.30000,-0.66209,-3.78483,761.82092,765.86853,0.55125,12.61772,0.66209,-0.45846,-8.25109,8.56365,8.10519
38.93700,0.61476,0.31065,-1.06710,-0.21725,0.08505,0.03559,-0.02815,0.00951,2.22641,-0.00301,-0.04372,2.44022,0.54314,0.13377,-0.30000,-0.66209,-3.78541,761.87969,765.86853,0.55121,12.61884,0.66209,-0.45784,-8.25109,8.56365,8.10581
38.93799,0.61476,0.31065,-1.06710,-0.21725,0.08505,0.03559,-0.02815,0.00951,2.22641,-0.00301,-0.04372,2.44022,0.54314,0.13377,-0.30000,-0.66209,-3.78541,761.87969,767.17767,0.55121,12.61995,0.66209,-0.45723,-8.26175,8.56365,8.10641
38.93899,0.56049,0.40096,-1.07256,-0.21125,0.08796,0.01136,-0.03035,0.01155,2.22641,-0.00568,-0.04251,2.44157,0.54314,0.13377,-0.30000,-0.66209,-3.78632,761.97106,765.86853,0.55120,12.62108,0.66209,-0.45663,-8.26175,8.56439,8.10776
38.93999,0.56049,0.40096,-1.07256,-0.21125,0.08796,0.01136,-0.03035,0.01155,2.22641,-0.00568,-0.04251,2.44157,0.54314,0.13377,-0.30000,-0.66209,-3.78632,761.97106,765.86853,0.55120,12.62221,0.66209,-0.45627,-8.38665,8.56439,8.10811
38.94100,0.56049,0.40096,-1.07256,-0.20737,0.08386,-0.01536,-0.03035,0.01155,2.22641,-0.00568,-0.04251,2.44157,0.54314,0.13377,-0.30000,-0.66209,-3.78665,762.00445,765.86853,0.55113,12.62335,0.66020,-0.45592,-8.38665,8.56439,8.10847
38.94200,0.56049,0.40096,-1.07256,-0.20737,0.08386,-0.01536,-0.03035,0.01155,2.22641,-0.00568,-0.04251,2.44157,0.54314,0.13377,-0.30000,-0.66209,-3.78665,762.00445,767.17767,0.55113,12.62449,0.66020,-0.45583,-8.52385,8.56439,8.10855
38.94300,0.56049,0.40096,-1.07256,-0.19549,0.07968,-0.04753,-0.03035,0.01155,2.22641,-0.00568,-0.04251,2.44157,0.54314,0.13377,-0.30000,-0.66209,-3.78673,762.01214,770.47027,0.55103,12.62563,0.66020,-0.45575,-8.52385,8.56439,8.10863
38.94400,0.56049,0.40096,-1.07256,-0.19549,0.07968,-0.04753,-0.03035,0.01155,2.22641,-0.00568,-0.04251,2.44157,0.54314,0.13377,-0.30000,-0.66209,-3.78673,762.01214,775.79766,0.55103,12.62678,0.66020,-0.45571,-8.54158,8.56439,8.10867
38.94499,0.56049,0.40096,-1.07256,-0.18256,0.08345,-0.07835,-0.03035,0.01155,2.22641,-0.00568,-0.04251,2.44157,0.54314,0.13377,-0.30000,-0.66209,-3.78677,762.01635,780.51989,0.55094,12.62794,0.66020,-0.45566,-8.54158,8.56439,8.10872
38.94599,0.56049,0.40096,-1.07256,-0.18256,0.08345,-0.07835,-0.03035,0.01155,2.22641,-0.00568,-0.04251,2.44157,0.54314,0.13377,-0.30000,-0.66209,-3.78677,762.01635,780.51989,0.55094,12.62910,0.66020,-0.45559,-8.52592,8.56439,8.10880
38.94699,0.56049,0.40096,-1.07256,-0.18043,0.08859,-0.10422,-0.03035,0.01155,2.22641,-0.00568,-0.04251,2.44157,0.54314,0.13377,-0.30000,-0.66209,-3.78684,762.02355,780.51989,0.55084,12.63026,0.66020,-0.45551,-8.52592,8.56439,8.10887
38.94800,0.56049,0.40096,-1.07256,-0.18043,0.08859,-0.10422,-0.03035,0.01155,2.22641,-0.00568,-0.04251,2.44157,0.54314,0.13377,-0.30000,-0.66209,-3.78684,762.02355,780.51989,0.55084,12.63143,0.66020,-0.45559,-8.60282,8.56439,8.10880
38.94900,0.62700,0.41651,-1.07062,-0.18235,0.08675,-0.13101,-0.02810,0.01247,2.22641,-0.00797,-0.04135,2.44138,0.54029,0.15996,-0.30000,-0.66020,-3.82733,766.08691,775.79766,0.55445,12.63261,0.66020,-0.45549,-8.60282,8.65108,8.19558
38.95000,0.62700,0.41651,-1.07062,-0.18235,0.08675,-0.13101,-0.02810,0.01247,2.22641,-0.00797,-0.04135,2.44138,0.54029,0.15996,-0.30000,-0.66020,-3.82733,766.08691,775.79766,0.55445,12.63379,0.66020,-0.45556,-8.68510,8.65108,8.19551
38.95100,0.62700,0.41651,-1.07062,-0.17405,0.08389,-0.16189,-0.02810,0.01247,2.22641,-0.00797,-0.04135,2.44138,0.54029,0.15996,-0.30000,-0.66020,-3.82727,766.08050,775.79766,0.55434,12.63497,0.65709,-0.45562,-8.68508,8.65108,8.19544
38.95199,0.62700,0.41651,-1.07062,-0.17405,0.08389,-0.16189,-0.02810,0.01247,2.22641,-0.00797,-0.04135,2.44138,0.54029,0.15996,-0.30000,-0.66020,-3.82727,766.08050,775.79766,0.55434,12.63616,0.65709,-0.45562,-8.64630,8.65108,8.19545
38.95299,0.62700,0.41651,-1.07062,-0.15904,0.08824,-0.19086,-0.02810,0.01247,2.22641,-0.00797,-0.04135,2.44138,0.54029,0.15996,-0.30000,-0.66020,-3.82728,766.08142,775.79766,0.55424,12.63736,0.65709,-0.45561,-8.64630,8.65108,8.19546
38.95399,0.62700,0.41651,-1.07062,-0.15904,0.08824,-0.19086,-0.02810,0.01247,2.22641,-0.00797,-0.04135,2.44138,0.54029,0.15996,-0.30000,-0.66020,-3.82728,766.08142,773.12475,0.55424,12.63857,0.65709,-0.45547,-8.58170,8.65108,8.19560
38.95500,0.62700,0.41651,-1.07062,-0.15060,0.09401,-0.21447,-0.02810,0.01247,2.22641,-0.00797,-0.04135,2.44138,0.54029,0.15996,-0.30000,-0.66020,-3.82741,766.09442,773.12475,0.55414,12.63978,0.65709,-0.45533,-8.58170,8.65108,8.19574
38.95600,0.62700,0.41651,-1.07062,-0.15060,0.09401,-0.21447,-0.02810,0.01247,2.22641,-0.00797,-0.04135,2.44138,0.54029,0.15996,-0.30000,-0.66020,-3.82741,766.09442,773.12475,0.55414,12.64099,0.65709,-0.45532,-8.64484,8.65108,8.19575
38.95700,0.62700,0.41651,-1.07062,-0.14668,0.09277,-0.23872,-0.02810,0.01247,2.22641,-0.00797,-0.04135,2.44138,0.54029,0.15996,-0.30000,-0.66020,-3.82742,766.09564,773.12475,0.55404,12.64221,0.65709,-0.45530,-8.64484,8.65108,8.19577
38.95800,0.62700,0.41651,-1.07062,-0.14668,0.09277,-0.23872,-0.02810,0.01247,2.22641,-0.00797,-0.04135,2.44138,0.54029,0.15996,-0.30000,-0.66020,-3.82742,766.09564,772.45947,0.55404,12.64344,0.65709,-0.45552,-8.75706,8.65108,8.19555
38.95899,0.67090,0.36131,-1.06242,-0.13621,0.09021,-0.26767,-0.02559,0.01017,2.22641,-0.00983,-0.04020,2.43977,0.53564,0.18001,-0.30000,-0.65709,-3.86154,769.50225,773.12475,0.55704,12.64467,0.65709,-0.45558,-8.75706,8.72441,8.26882
38.95999,0.67090,0.36131,-1.06242,-0.13621,0.09021,-0.26767,-0.02559,0.01017,2.22641,-0.00983,-0.04020,2.43977,0.53564,0.18001,-0.30000,-0.65709,-3.86154,769.50225,773.12475,0.55704,12.64590,0.65709,-0.45562,-8.74509,8.72441,8.26878
38.96099,0.67090,0.36131,-1.06242,-0.12275,0.09526,-0.29576,-0.02559,0.01017,2.22641,-0.00983,-0.04020,2.43977,0.53564,0.18001,-0.30000,-0.65709,-3.86150,769.49841,788.05786,0.55692,12.64715,0.65709,-0.45566,-8.74509,8.72441,8.26874
38.96200,0.67090,0.36131,-1.06242,-0.12275,0.09526,-0.29576,-0.02559,0.01017,2.22641,-0.00983,-0.04020,2.43977,0.53564,0.18001,-0.30000,-0.65709,-3.86150,769.49841,792.23114,0.55692,12.64839,0.65709,-0.45556,-8.67043,8.72441,8.26884
38.96300,0.67090,0.36131,-1.06242,-0.11804,0.10246,-0.31895,-0.02559,0.01017,2.22641,-0.00983,-0.04020,2.43977,0.53564,0.18001,-0.30000,-0.65709,-3.86160,769.50842,792.23114,0.55682,12.64964,0.65709,-0.45545,-8.67043,8.72441,8.26895
38.96400,0.67090,0.36131,-1.06242,-0.11804,0.10246,-0.31895,-0.02559,0.01017,2.22641,-0.00983,-0.04020,2.43977,0.53564,0.18001,-0.30000,-0.65709,-3.86160,769.50842,792.23114,0.55682,12.65090,0.65709,-0.45540,-8.69841,8.72441,8.26900
38.96500,0.67090,0.36131,-1.06242,-0.11834,0.10228,-0.34290,-0.02559,0.01017,2.22641,-0.00983,-0.04020,2.43977,0.53564,0.18001,-0.30000,-0.65709,-3.86165,769.51330,792.23114,0.55672,12.65216,0.65709,-0.45534,-8.69841,8.72441,8.26906
38.96599,0.67090,0.36131,-1.06242,-0.11834,0.10228,-0.34290,-0.02559,0.01017,2.22641,-0.00983,-0.04020,2.43977,0.53564,0.18001,-0.30000,-0.65709,-3.86165,769.51330,792.23114,0.55672,12.65342,0.65709,-0.45541,-8.75985,8.72441,8.26899
38.96699,0.67090,0.36131,-1.06242,-0.11075,0.09957,-0.37192,-0.02559,0.01017,2.22641,-0.00983,-0.04020,2.43977,0.53564,0.18001,-0.30000,-0.65709,-3.86158,769.50671,792.23114,0.55660,12.65469,0.65709,-0.45549,-8.75985,8.72441,8.26891
38.96799,0.67090,0.36131,-1.06242,-0.11075,0.09957,-0.37192,-0.02559,0.01017,2.22641,-0.00983,-0.04020,2.43977,0.53564,0.18001,-0.30000,-0.65709,-3.86158,769.50671,791.53253,0.55660,12.65597,0.65709,-0.45542,-8.69222,8.72441,8.26898
38.96900,0.60987,0.39602,-1.04681,-0.09743,0.10407,-0.40034,-0.02789,0.01136,2.22641,-0.01121,-0.03897,2.43681,0.53564,0.18001,-0.30000,-0.65709,-3.86194,769.54296,791.53253,0.55652,12.65725,0.65709,-0.45536,-8.69222,8.72505,8.26969
38.97000,0.60987,0.39602,-1.04681,-0.09743,0.10407,-0.40034,-0.02789,0.01136,2.22641,-0.01121,-0.03897,2.43681,0.53564,0.18001,-0.30000,-0.65709,-3.86194,769.54296,789.44403,0.55652,12.65853,0.65709,-0.45504,-8.56981,8.72505,8.27000
38.97100,0.60987,0.39602,-1.04681,-0.09062,0.11164,-0.42319,-0.02789,0.01136,2.22641,-0.01121,-0.03897,2.43681,0.53564,0.18001,-0.30000,-0.65709,-3.86223,769.57183,789.44403,0.55643,12.65982,0.65359,-0.45473,-8.56979,8.72505,8.27031
38.97200,0.60987,0.39602,-1.04681,-0.09062,0.11164,-0.42319,-0.02789,0.01136,2.22641,-0.01121,-0.03897,2.43681,0.53564,0.18001,-0.30000,-0.65709,-3.86223,769.57183,785.29998,0.55643,12.66111,0.65359,-0.45443,-8.57464,8.72505,8.27062
38.97299,0.60987,0.39602,-1.04681,-0.08826,0.11277,-0.44544,-0.02789,0.01136,2.22641,-0.01121,-0.03897,2.43681,0.53564,0.18001,-0.30000,-0.65709,-3.86252,769.59985,783.24420,0.55635,12.66241,0.65359,-0.45413,-8.57464,8.72505,8.27092
38.97399,0.60987,0.39602,-1.04681,-0.08826,0.11277,-0.44544,-0.02789,0.01136,2.22641,-0.01121,-0.03897,2.43681,0.53564,0.18001,-0.30000,-0.65709,-3.86252,769.59985,775.79766,0.55635,12.66371,0.65359,-0.45398,-8.64734,8.72505,8.27107
38.97499,0.60987,0.39602,-1.04681,-0.07838,0.11126,-0.47170,-0.02789,0.01136,2.22641,-0.01121,-0.03897,2.43681,0.53564,0.18001,-0.30000,-0.65709,-3.86266,769.61431,783.24420,0.55624,12.66501,0.65359,-0.45382,-8.64734,8.72505,8.27123
38.97600,0.60987,0.39602,-1.04681,-0.07838,0.11126,-0.47170,-0.02789,0.01136,2.22641,-0.01121,-0.03897,2.43681,0.53564,0.18001,-0.30000,-0.65709,-3.86266,769.61431,783.24420,0.55624,12.66631,0.65359,-0.45357,-8.59808,8.72505,8.27148
38.97700,0.60987,0.39602,-1.04681,-0.06390,0.11633,-0.49696,-0.02789,0.01136,2.22641,-0.01121,-0.03897,2.43681,0.53564,0.18001,-0.30000,-0.65709,-3.86290,769.63800,783.24420,0.55615,12.66763,0.65359,-0.45331,-8.59808,8.72505,8.27174
38.97800,0.60987,0.39602,-1.04681,-0.06390,0.11633,-0.49696,-0.02789,0.01136,2.22641,-0.01121,-0.03897,2.43681,0.53564,0.18001,-0.30000,-0.65709,-3.86290,769.63800,783.24420,0.55615,12.66894,0.65359,-0.45283,-8.48259,8.72505,8.27222
38.97900,0.76791,0.37411,-1.02555,-0.05864,0.12364,-0.51673,-0.02057,0.01077,2.22641,-0.01221,-0.03760,2.43257,0.53039,0.20389,-0.30000,-0.65359,-3.90350,773.67260,783.24420,0.55971,12.67026,0.65359,-0.45217,-8.48259,8.81087,8.35869
38.97999,0.76791,0.37411,-1.02555,-0.05864,0.12364,-0.51673,-0.02057,0.01077,2.22641,-0.01221,-0.03760,2.43257,0.53039,0.20389,-0.30000,-0.65359,-3.90350,773.67260,779.84179,0.55971,12.67158,0.65359,-0.45154,-8.49527,8.81087,8.35932
38.98099,0.76791,0.37411,-1.02555,-0.06128,0.12301,-0.53660,-0.02057,0.01077,2.22641,-0.01221,-0.03760,2.43257,0.53039,0.20389,-0.30000,-0.65359,-3.90409,773.73095,775.79766,0.55964,12.67290,0.65359,-0.45091,-8.49549,8.81087,8.35995
38.98199,0.76791,0.37411,-1.02555,-0.06128,0.12301,-0.53660,-0.02057,0.01077,2.22641,-0.01221,-0.03760,2.43257,0.53039,0.20389,-0.30000,-0.65359,-3.90409,773.73095,775.79766,0.55964,12.67423,0.65359,-0.45046,-8.58556,8.81087,8.36040
38.98300,0.76791,0.37411,-1.02555,-0.05760,0.11866,-0.56220,-0.02057,0.01077,2.22641,-0.01221,-0.03760,2.43257,0.53039,0.20389,-0.30000,-0.65359,-3.90451,773.77270,775.12774,0.55957,12.67556,0.65359,-0.45001,-8.58556,8.81087,8.36085
38.98400,0.76791,0.37411,-1.02555,-0.05760,0.11866,-0.56220,-0.02057,0.01077,2.22641,-0.01221,-0.03760,2.43257,0.53039,0.20389,-0.30000,-0.65359,-3.90451,773.77270,775.79766,0.55957,12.67690,0.65359,-0.44948,-8.54490,8.81087,8.36138
38.98500,0.76791,0.37411,-1.02555,-0.04680,0.12200,-0.58867,-0.02057,0.01077,2.22641,-0.01221,-0.03760,2.43257,0.53039,0.20389,-0.30000,-0.65359,-3.90501,773.82189,775.79766,0.55949,12.67823,0.65359,-0.44895,-8.54490,8.81087,8.36191
38.98600,0.76791,0.37411,-1.02555,-0.04680,0.12200,-0.58867,-0.02057,0.01077,2.22641,-0.01221,-0.03760,2.43257,0.53039,0.20389,-0.30000,-0.65359,-3.90501,773.82189,775.12774,0.55949,12.67957,0.65359,-0.44812,-8.39673,8.81087,8.36274
38.98699,0.76791,0.37411,-1.02555,-0.04174,0.13042,-0.61012,-0.02057,0.01077,2.22641,-0.01221,-0.03760,2.43257,0.53039,0.20389,-0.30000,-0.65359,-3.90579,773.89855,774.45892,0.55944,12.68091,0.65359,-0.44729,-8.39673,8.81087,8.36357
38.98799,0.76791,0.37411,-1.02555,-0.04174,0.13042,-0.61012,-0.02057,0.01077,2.22641,-0.01221,-0.03760,2.43257,0.53039,0.20389,-0.30000,-0.65359,-3.90579,773.89855,775.12774,0.55944,12.68226,0.65359,-0.44637,-8.35013,8.81087,8.36449
38.98899,0.64324,0.38223,-0.99809,-0.04325,0.13274,-0.63078,-0.02432,0.01141,2.22641,-0.01279,-0.03612,2.42713,0.53039,0.20389,-0.30000,-0.65359,-3.90702,774.02117,775.12774,0.55944,12.68361,0.65359,-0.44544,-8.35013,8.81167,8.36622
38.99000,0.64324,0.38223,-0.99809,-0.04325,0.13274,-0.63078,-0.02432,0.01141,2.22641,-0.01279,-0.03612,2.42713,0.53039,0.20389,-0.30000,-0.65359,-3.90702,774.02117,775.12774,0.55944,12.68496,0.65359,-0.44464,-8.40772,8.81167,8.36703
38.99100,0.64324,0.38223,-0.99809,-0.03927,0.13039,-0.65621,-0.02432,0.01141,2.22641,-0.01279,-0.03612,2.42713,0.53039,0.20389,-0.30000,-0.65359,-3.90778,774.09588,776.46875,0.55939,12.68630,0.64970,-0.44383,-8.40770,8.81167,8.36784
38.99200,0.64324,0.38223,-0.99809,-0.03927,0.13039,-0.65621,-0.02432,0.01141,2.22641,-0.01279,-0.03612,2.42713,0.53039,0.20389,-0.30000,-0.65359,-3.90778,774.09588,788.05786,0.55939,12.68766,0.64970,-0.44298,-8.38895,8.81167,8.36868
38.99300,0.64324,0.38223,-0.99809,-0.02949,0.13343,-0.68193,-0.02432,0.01141,2.22641,-0.01279,-0.03612,2.42713,0.53039,0.20389,-0.30000,-0.65359,-3.90857,774.17407,788.05786,0.55934,12.68901,0.64970,-0.44214,-8.38895,8.81167,8.36953
38.99399,0.64324,0.38223,-0.99809,-0.02949,0.13343,-0.68193,-0.02432,0.01141,2.22641,-0.01279,-0.03612,2.42713,0.53039,0.20389,-0.30000,-0.65359,-3.90857,774.17407,780.51989,0.55934,12.69036,0.64970,-0.44113,-8.30582,8.81167,8.37054
38.99499,0.64324,0.38223,-0.99809,-0.02631,0.14055,-0.70181,-0.02432,0.01141,2.22641,-0.01279,-0.03612,2.42713,0.53039,0.20389,-0.30000,-0.65359,-3.90951,774.26770,782.56134,0.55930,12.69171,0.64970,-0.44011,-8.30582,8.81167,8.37155
38.99599,0.64324,0.38223,-0.99809,-0.02631,0.14055,-0.70181,-0.02432,0.01141,2.22641,-0.01279,-0.03612,2.42713,0.53039,0.20389,-0.30000,-0.65359,-3.90951,774.26770,780.51989,0.55930,12.69306,0.64970,-0.43915,-8.32790,8.81167,8.37252
38.99700,0.64324,0.38223,-0.99809,-0.03034,0.14275,-0.71933,-0.02432,0.01141,2.22641,-0.01279,-0.03612,2.42713,0.53039,0.20389,-0.30000,-0.65359,-3.91042,774.35717,780.51989,0.55927,12.69441,0.64970,-0.43818,-8.32790,8.81167,8.37349
38.99800,0.64324,0.38223,-0.99809,-0.03034,0.14275,-0.71933,-0.02432,0.01141,2.22641,-0.01279,-0.03612,2.42713,0.53039,0.20389,-0.30000,-0.65359,-3.91042,774.35717,780.51989,0.55927,12.69576,0.64970,-0.43740,-8.42091,8.81167,8.37427
38.99900,0.76521,0.32289,-0.96592,-0.02906,0.14236,-0.73973,-0.01878,0.00898,2.22641,-0.01315,-0.03452,2.42055,0.52455,0.22733,-0.30000,-0.64970,-3.95168,778.43182,778.48907,0.56285,12.69711,0.64970,-0.43644,-8.42091,8.89829,8.46184
39.00000,0.76521,0.32289,-0.96592,-0.02906,0.14236,-0.73973,-0.01878,0.00898,2.22641,-0.01315,-0.03452,2.42055,0.52455,0.22733,-0.30000,-0.64970,-3.95168,778.43182,780.51989,0.56285,12.69846,0.64970,-0.43542,-8.38853,8.89829,8.46286
39.00099,0.76521,0.32289,-0.96592,-0.02116,0.14868,-0.75942,-0.01878,0.00898,2.22641,-0.01315,-0.03452,2.42055,0.52455,0.22733,-0.30000,-0.64970,-3.95263,778.52563,780.51989,0.56281,12.69981,0.64540,-0.43440,-8.38853,8.89829,8.46388
39.00199,0.76521,0.32289,-0.96592,-0.02116,0.14868,-0.75942,-0.01878,0.00898,2.22641,-0.01315,-0.03452,2.42055,0.52455,0.22733,-0.30000,-0.64970,-3.95263,778.52563,782.56134,0.56281,12.70115,0.64540,-0.43311,-8.24969,8.89829,8.46518
39.00299,0.76521,0.32289,-0.96592,-0.01842,0.15849,-0.77379,-0.01878,0.00898,2.22641,-0.01315,-0.03452,2.42055,0.52455,0.22733,-0.30000,-0.64970,-3.95384,778.64495,780.51989,0.56280,12.70249,0.64540,-0.43181,-8.24969,8.89829,8.46648
39.00400,0.76521,0.32289,-0.96592,-0.01842,0.15849,-0.77379,-0.01878,0.00898,2.22641,-0.01315,-0.03452,2.42055,0.52455,0.22733,-0.30000,-0.64970,-3.95384,778.64495,778.48907,0.56280,12.70383,0.64540,-0.43045,-8.21809,8.89829,8.46784
39.00500,0.76521,0.32289,-0.96592,-0.02188,0.16106,-0.78761,-0.01878,0.00898,2.22641,-0.01315,-0.03452,2.42055,0.52455,0.22733,-0.30000,-0.64970,-3.95511,778.77008,778.48907,0.56280,12.70517,0.64540,-0.42909,-8.21809,8.89829,8.46920
39.00600,0.76521,0.32289,-0.96592,-0.02188,0.16106,-0.78761,-0.01878,0.00898,2.22641,-0.01315,-0.03452,2.42055,0.52455,0.22733,-0.30000,-0.64970,-3.95511,778.77008,778.48907,0.56280,12.70651,0.64540,-0.42790,-8.30467,8.89829,8.47038
39.00699,0.76521,0.32289,-0.96592,-0.02018,0.15887,-0.80676,-0.01878,0.00898,2.22641,-0.01315,-0.03452,2.42055,0.52455,0.22733,-0.30000,-0.64970,-3.95622,778.87927,783.92828,0.56278,12.70785,0.64540,-0.42671,-8.30467,8.89829,8.47157
39.00799,0.76521,0.32289,-0.96592,-0.02018,0.15887,-0.80676,-0.01878,0.00898,2.22641,-0.01315,-0.03452,2.42055,0.52455,0.22733,-0.30000,-0.64970,-3.95622,778.87927,784.61352,0.56278,12.70918,0.64540,-0.42556,-8.32095,8.89829,8.47272
39.00899,0.74405,0.26528,-0.92829,-0.01328,0.16329,-0.82707,-0.01782,0.00547,2.22641,-0.01331,-0.03279,2.41286,0.51810,0.24953,-0.30000,-0.64540,-3.99734,782.91656,784.61352,0.56632,12.71051,0.64540,-0.42423,-8.32095,8.98386,8.55962
39.00999,0.74405,0.26528,-0.92829,-0.01328,0.16329,-0.82707,-0.01782,0.00547,2.22641,-0.01331,-0.03279,2.41286,0.51810,0.24953,-0.30000,-0.64540,-3.99734,782.91656,784.61352,0.56632,12.71184,0.64540,-0.42281,-8.27292,8.98386,8.56104
39.01100,0.74405,0.26528,-0.92829,-0.01346,0.17325,-0.84195,-0.01782,0.00547,2.22641,-0.01331,-0.03279,2.41286,0.51810,0.24953,-0.30000,-0.64540,-3.99867,783.04656,785.98767,0.56632,12.71316,0.64240,-0.42139,-8.27291,8.98386,8.56247
39.01200,0.74405,0.26528,-0.92829,-0.01346,0.17325,-0.84195,-0.01782,0.00547,2.22641,-0.01331,-0.03279,2.41286,0.51810,0.24953,-0.30000,-0.64540,-3.99867,783.04656,785.98767,0.56632,12.71448,0.64240,-0.42009,-8.33157,8.98386,8.56377
39.01300,0.74405,0.26528,-0.92829,-0.02081,0.17820,-0.85410,-0.01782,0.00547,2.22641,-0.01331,-0.03279,2.41286,0.51810,0.24953,-0.30000,-0.64540,-3.99989,783.16583,784.61352,0.56631,12.71580,0.64240,-0.41878,-8.33157,8.98386,8.56507
39.01399,0.74405,0.26528,-0.92829,-0.02081,0.17820,-0.85410,-0.01782,0.00547,2.22641,-0.01331,-0.03279,2.41286,0.51810,0.24953,-0.30000,-0.64540,-3.99989,783.16583,785.98767,0.56631,12.71711,0.64240,-0.41771,-8.44835,8.98386,8.56615
39.01499,0.74405,0.26528,-0.92829,-0.02173,0.17895,-0.86891,-0.01782,0.00547,2.22641,-0.01331,-0.03279,2.41286,0.51810,0.24953,-0.30000,-0.64540,-4.00089,783.26379,785.98767,0.56629,12.71842,0.64240,-0.41664,-8.44835,8.98386,8.56722
39.01599,0.74405,0.26528,-0.92829,-0.02173,0.17895,-0.86891,-0.01782,0.00547,2.22641,-0.01331,-0.03279,2.41286,0.51810,0.24953,-0.30000,-0.64540,-4.00089,783.26379,790.13897,0.56629,12.71972,0.64240,-0.41550,-8.41211,8.98386,8.56836
39.01699,0.74405,0.26528,-0.92829,-0.01416,0.18511,-0.88340,-0.01782,0.00547,2.22641,-0.01331,-0.03279,2.41286,0.51810,0.24953,-0.30000,-0.64540,-4.00196,783.36834,790.13897,0.56627,12.72102,0.64240,-0.41435,-8.41211,8.98386,8.56950
39.01800,0.74405,0.26528,-0.92829,-0.01416,0.18511,-0.88340,-0.01782,0.00547,2.22641,-0.01331,-0.03279,2.41286,0.51810,0.24953,-0.30000,-0.64540,-4.00196,783.36834,790.13897,0.56627,12.72231,0.64240,-0.41289,-8.25273,8.98386,8.57097
39.01900,0.79971,0.31552,-0.88513,-0.01072,0.19513,-0.89289,-0.01387,0.00678,2.22641,-0.01338,-0.03084,2.40435,0.51359,0.26930,-0.30000,-0.64240,-4.03717,786.80712,791.53253,0.56927,12.72360,0.64240,-0.41128,-8.25273,9.05619,8.64491
39.02000,0.79971,0.31552,-0.88513,-0.01072,0.19513,-0.89289,-0.01387,0.00678,2.22641,-0.01338,-0.03084,2.40435,0.51359,0.26930,-0.30000,-0.64240,-4.03717,786.80712,790.13897,0.56927,12.72489,0.64240,-0.40957,-8.20013,9.05619,8.64662
39.02099,0.79971,0.31552,-0.88513,-0.01434,0.19922,-0.90193,-0.01387,0.00678,2.22641,-0.01338,-0.03084,2.40435,0.51359,0.26930,-0.30000,-0.64240,-4.03877,786.96301,790.13897,0.56929,12.72616,0.64240,-0.40786,-8.20013,9.05619,8.64833
39.02199,0.79971,0.31552,-0.88513,-0.01434,0.19922,-0.90193,-0.01387,0.00678,2.22641,-0.01338,-0.03084,2.40435,0.51359,0.26930,-0.30000,-0.64240,-4.03877,786.96301,786.67651,0.56929,12.72744,0.64240,-0.40628,-8.26675,9.05619,8.64991
39.02299,0.79971,0.31552,-0.88513,-0.01414,0.19932,-0.91679,-0.01387,0.00678,2.22641,-0.01338,-0.03084,2.40435,0.51359,0.26930,-0.30000,-0.64240,-4.04024,787.10668,786.67651,0.56931,12.72870,0.64240,-0.40470,-8.26675,9.05619,8.65149
39.02399,0.79971,0.31552,-0.88513,-0.01414,0.19932,-0.91679,-0.01387,0.00678,2.22641,-0.01338,-0.03084,2.40435,0.51359,0.26930,-0.30000,-0.64240,-4.04024,787.10668,787.36657,0.56931,12.72996,0.64240,-0.40312,-8.26498,9.05619,8.65307
39.02500,0.79971,0.31552,-0.88513,-0.00868,0.20598,-0.93353,-0.01387,0.00678,2.22641,-0.01338,-0.03084,2.40435,0.51359,0.26930,-0.30000,-0.64240,-4.04172,787.25061,787.36657,0.56933,12.73122,0.64240,-0.40154,-8.26498,9.05619,8.65465
39.02600,0.79971,0.31552,-0.88513,-0.00868,0.20598,-0.93353,-0.01387,0.00678,2.22641,-0.01338,-0.03084,2.40435,0.51359,0.26930,-0.30000,-0.64240,-4.04172,787.25061,786.67651,0.56933,12.73246,0.64240,-0.39982,-8.20032,9.05619,8.65637
39.02700,0.79971,0.31552,-0.88513,-0.00938,0.21758,-0.94537,-0.01387,0.00678,2.22641,-0.01338,-0.03084,2.40435,0.51359,0.26930,-0.30000,-0.64240,-4.04332,787.40631,786.67651,0.56936,12.73370,0.64240,-0.39811,-8.20032,9.05619,8.65808
39.02799,0.79971,0.31552,-0.88513,-0.00938,0.21758,-0.94537,-0.01387,0.00678,2.22641,-0.01338,-0.03084,2.40435,0.51359,0.26930,-0.30000,-0.64240,-4.04332,787.40631,785.29998,0.56936,12.73494,0.64240,-0.39650,-8.25128,9.05619,8.65969
39.02899,0.67792,0.33223,-0.83897,-0.01685,0.22305,-0.95507,-0.01825,0.00826,2.22641,-0.01345,-0.02865,2.39516,0.51359,0.26930,-0.30000,-0.64240,-4.04517,787.58636,785.98767,0.56941,12.73617,0.64240,-0.39489,-8.25128,9.05693,8.66204
39.02999,0.67792,0.33223,-0.83897,-0.01685,0.22305,-0.95507,-0.01825,0.00826,2.22641,-0.01345,-0.02865,2.39516,0.51359,0.26930,-0.30000,-0.64240,-4.04517,787.58636,785.98767,0.56941,12.73739,0.64240,-0.39356,-8.39235,9.05693,8.66337
39.03099,0.67792,0.33223,-0.83897,-0.01773,0.22316,-0.96842,-0.01825,0.00826,2.22641,-0.01345,-0.02865,2.39516,0.51359,0.26930,-0.30000,-0.64240,-4.04641,787.70721,785.98767,0.56941,12.73860,0.63750,-0.39223,-8.39234,9.05693,8.66470
39.03200,0.67792,0.33223,-0.83897,-0.01773,0.22316,-0.96842,-0.01825,0.00826,2.22641,-0.01345,-0.02865,2.39516,0.51359,0.26930,-0.30000,-0.64240,-4.04641,787.70721,786.67651,0.56941,12.73981,0.63750,-0.39096,-8.41929,9.05693,8.66597
39.03300,0.67792,0.33223,-0.83897,-0.00942,0.22852,-0.98209,-0.01825,0.00826,2.22641,-0.01345,-0.02865,2.39516,0.51359,0.26930,-0.30000,-0.64240,-4.04760,787.82312,786.67651,0.56941,12.74102,0.63750,-0.38968,-8.41929,9.05693,8.66725
39.03400,0.67792,0.33223,-0.83897,-0.00942,0.22852,-0.98209,-0.01825,0.00826,2.22641,-0.01345,-0.02865,2.39516,0.51359,0.26930,-0.30000,-0.64240,-4.04760,787.82312,787.36657,0.56941,12.74222,0.63750,-0.38822,-8.32773,9.05693,8.66870
39.03499,0.67792,0.33223,-0.83897,-0.00460,0.23873,-0.99007,-0.01825,0.00826,2.22641,-0.01345,-0.02865,2.39516,0.51359,0.26930,-0.30000,-0.64240,-4.04896,787.95568,785.98767,0.56942,12.74341,0.63750,-0.38677,-8.32773,9.05693,8.67016
39.03599,0.67792,0.33223,-0.83897,-0.00460,0.23873,-0.99007,-0.01825,0.00826,2.22641,-0.01345,-0.02865,2.39516,0.51359,0.26930,-0.30000,-0.64240,-4.04896,787.95568,785.98767,0.56942,12.74459,0.63750,-0.38527,-8.31162,9.05693,8.67165
39.03699,0.67792,0.33223,-0.83897,-0.00702,0.24367,-0.99587,-0.01825,0.00826,2.22641,-0.01345,-0.02865,2.39516,0.51359,0.26930,-0.30000,-0.64240,-4.05036,788.09112,785.98767,0.56944,12.74577,0.63750,-0.38378,-8.31162,9.05693,8.67314
39.03799,0.67792,0.33223,-0.83897,-0.00702,0.24367,-0.99587,-0.01825,0.00826,2.22641,-0.01345,-0.02865,2.39516,0.51359,0.26930,-0.30000,-0.64240,-4.05036,788.09112,785.98767,0.56944,12.74694,0.63750,-0.38246,-8.39502,9.05693,8.67447
39.03900,0.78414,0.24569,-0.79119,-0.00623,0.24353,-1.00602,-0.01408,0.00514,2.22641,-0.01350,-0.02617,2.38536,0.50625,0.28803,-0.30000,-0.63750,-4.08783,791.72888,788.05786,0.57263,12.74811,0.63750,-0.38098,-8.39502,9.13438,8.75340
39.04000,0.78414,0.24569,-0.79119,-0.00623,0.24353,-1.00602,-0.01408,0.00514,2.22641,-0.01350,-0.02617,2.38536,0.50625,0.28803,-0.30000,-0.63750,-4.08783,791.72888,790.83514,0.57263,12.74927,0.63750,-0.37954,-8.41398,9.13438,8.75484
39.04100,0.78414,0.24569,-0.79119,-0.00037,0.24781,-1.01731,-0.01408,0.00514,2.22641,-0.01350,-0.02617,2.38536,0.50625,0.28803,-0.30000,-0.63750,-4.08918,791.85919,790.83514,0.57264,12.75043,0.63750,-0.37810,-8.41398,9.13438,8.75628
39.04199,0.78414,0.24569,-0.79119,-0.00037,0.24781,-1.01731,-0.01408,0.00514,2.22641,-0.01350,-0.02617,2.38536,0.50625,0.28803,-0.30000,-0.63750,-4.08918,791.85919,788.05786,0.57264,12.75157,0.63750,-0.37658,-8.37418,9.13438,8.75780
39.04299,0.78414,0.24569,-0.79119,-0.00012,0.25625,-1.02315,-0.01408,0.00514,2.22641,-0.01350,-0.02617,2.38536,0.50625,0.28803,-0.30000,-0.63750,-4.09060,791.99664,790.13897,0.57266,12.75272,0.63750,-0.37506,-8.37418,9.13438,8.75932
39.04399,0.78414,0.24569,-0.79119,-0.00012,0.25625,-1.02315,-0.01408,0.00514,2.22641,-0.01350,-0.02617,2.38536,0.50625,0.28803,-0.30000,-0.63750,-4.09060,791.99664,790.83514,0.57266,12.75385,0.63750,-0.37367,-8.44050,9.13438,8.76071
39.04499,0.78414,0.24569,-0.79119,-0.00637,0.26039,-1.02604,-0.01408,0.00514,2.22641,-0.01350,-0.02617,2.38536,0.50625,0.28803,-0.30000,-0.63750,-4.09190,792.12213,790.83514,0.57267,12.75498,0.63750,-0.37228,-8.44050,9.13438,8.76210
39.04600,0.78414,0.24569,-0.79119,-0.00637,0.26039,-1.02604,-0.01408,0.00514,2.22641,-0.01350,-0.02617,2.38536,0.50625,0.28803,-0.30000,-0.63750,-4.09190,792.12213,790.83514,0.57267,12.75611,0.63750,-0.37117,-8.58008,9.13438,8.76320
39.04700,0.78414,0.24569,-0.79119,-0.00763,0.26212,-1.03159,-0.01408,0.00514,2.22641,-0.01350,-0.02617,2.38536,0.50625,0.28803,-0.30000,-0.63750,-4.09293,792.22235,791.53253,0.57266,12.75723,0.63750,-0.37007,-8.58008,9.13438,8.76431
39.04800,0.78414,0.24569,-0.79119,-0.00763,0.26212,-1.03159,-0.01408,0.00514,2.22641,-0.01350,-0.02617,2.38536,0.50625,0.28803,-0.30000,-0.63750,-4.09293,792.22235,792.93103,0.57266,12.75834,0.63750,-0.36900,-8.60338,9.13438,8.76537
39.04899,0.69673,0.28619,-0.73905,-0.00283,0.27050,-1.03691,-0.01737,0.00694,2.22641,-0.01346,-0.02346,2.37502,0.50625,0.28803,-0.30000,-0.63750,-4.09419,792.34423,792.93103,0.57267,12.75945,0.63750,-0.36794,-8.60338,9.13496,8.76701
39.04999,0.69673,0.28619,-0.73905,-0.00283,0.27050,-1.03691,-0.01737,0.00694,2.22641,-0.01346,-0.02346,2.37502,0.50625,0.28803,-0.30000,-0.63750,-4.09419,792.34423,792.23114,0.57267,12.76055,0.63750,-0.36674,-8.53413,9.13496,8.76821
39.05099,0.69673,0.28619,-0.73905,-0.00349,0.28244,-1.03721,-0.01737,0.00694,2.22641,-0.01346,-0.02346,2.37502,0.50625,0.28803,-0.30000,-0.63750,-4.09531,792.45288,792.93103,0.57267,12.76164,0.63210,-0.36554,-8.53414,9.13496,8.76941
39.05199,0.69673,0.28619,-0.73905,-0.00349,0.28244,-1.03721,-0.01737,0.00694,2.22641,-0.01346,-0.02346,2.37502,0.50625,0.28803,-0.30000,-0.63750,-4.09531,792.45288,792.93103,0.57267,12.76273,0.63210,-0.36441,-8.57045,9.13496,8.77054
39.05300,0.69673,0.28619,-0.73905,-0.01056,0.28689,-1.03694,-0.01737,0.00694,2.22641,-0.01346,-0.02346,2.37502,0.50625,0.28803,-0.30000,-0.63750,-4.09637,792.55480,792.93103,0.57267,12.76382,0.63210,-0.36328,-8.57045,9.13496,8.77167
39.05400,0.69673,0.28619,-0.73905,-0.01056,0.28689,-1.03694,-0.01737,0.00694,2.22641,-0.01346,-0.02346,2.37502,0.50625,0.28803,-0.30000,-0.63750,-4.09637,792.55480,795.03796,0.57267,12.76490,0.63210,-0.36242,-8.70337,9.13496,8.77254
39.05500,0.69673,0.28619,-0.73905,-0.01246,0.28546,-1.04211,-0.01737,0.00694,2.22641,-0.01346,-0.02346,2.37502,0.50625,0.28803,-0.30000,-0.63750,-4.09717,792.63287,793.63208,0.57264,12.76597,0.63210,-0.36155,-8.70337,9.13496,8.77340
39.05599,0.69673,0.28619,-0.73905,-0.01246,0.28546,-1.04211,-0.01737,0.00694,2.22641,-0.01346,-0.02346,2.37502,0.50625,0.28803,-0.30000,-0.63750,-4.09717,792.63287,795.03796,0.57264,12.76704,0.63210,-0.36078,-8.74844,9.13496,8.77417
39.05699,0.69673,0.28619,-0.73905,-0.00831,0.28896,-1.04857,-0.01737,0.00694,2.22641,-0.01346,-0.02346,2.37502,0.50625,0.28803,-0.30000,-0.63750,-4.09790,792.70269,795.03796,0.57261,12.76811,0.63210,-0.36001,-8.74844,9.13496,8.77494
39.05799,0.69673,0.28619,-0.73905,-0.00831,0.28896,-1.04857,-0.01737,0.00694,2.22641,-0.01346,-0.02346,2.37502,0.50625,0.28803,-0.30000,-0.63750,-4.09790,792.70269,795.03796,0.57261,12.76918,0.63210,-0.35917,-8.71520,9.13496,8.77578
39.05899,0.79563,0.21806,-0.68693,-0.00967,0.29651,-1.04975,-0.01331,0.00471,2.22641,-0.01341,-0.02049,2.36440,0.49814,0.31159,-0.30000,-0.63210,-4.14281,797.03497,797.86480,0.57643,12.77024,0.63210,-0.35814,-8.71520,9.22926,8.87112
39.06000,0.79563,0.21806,-0.68693,-0.00967,0.29651,-1.04975,-0.01331,0.00471,2.22641,-0.01341,-0.02049,2.36440,0.49814,0.31159,-0.30000,-0.63210,-4.14281,797.03497,795.03796,0.57643,12.77130,0.63210,-0.35722,-8.76963,9.22926,8.87204
39.06100,0.79563,0.21806,-0.68693,-0.01691,0.29858,-1.04866,-0.01331,0.00471,2.22641,-0.01341,-0.02049,2.36440,0.49814,0.31159,-0.30000,-0.63210,-4.14367,797.11755,795.03796,0.57641,12.77236,0.62650,-0.35630,-8.76963,9.22926,8.87296
39.06200,0.79563,0.21806,-0.68693,-0.01691,0.29858,-1.04866,-0.01331,0.00471,2.22641,-0.01341,-0.02049,2.36440,0.49814,0.31159,-0.30000,-0.63210,-4.14367,797.11755,793.63208,0.57641,12.77341,0.62650,-0.35559,-8.87524,9.22926,8.87367
39.06299,0.79563,0.21806,-0.68693,-0.01798,0.29692,-1.05091,-0.01331,0.00471,2.22641,-0.01341,-0.02049,2.36440,0.49814,0.31159,-0.30000,-0.63210,-4.14433,797.18121,795.03796,0.57637,12.77446,0.62650,-0.35488,-8.87524,9.22926,8.87438
39.06399,0.79563,0.21806,-0.68693,-0.01798,0.29692,-1.05091,-0.01331,0.00471,2.22641,-0.01341,-0.02049,2.36440,0.49814,0.31159,-0.30000,-0.63210,-4.14433,797.18121,795.03796,0.57637,12.77550,0.62650,-0.35411,-8.84171,9.22926,8.87515
39.06499,0.79563,0.21806,-0.68693,-0.01221,0.30069,-1.05350,-0.01331,0.00471,2.22641,-0.01341,-0.02049,2.36440,0.49814,0.31159,-0.30000,-0.63210,-4.14505,797.25079,798.57464,0.57634,12.77655,0.62650,-0.35333,-8.84171,9.22926,8.87592
39.06600,0.79563,0.21806,-0.68693,-0.01221,0.30069,-1.05350,-0.01331,0.00471,2.22641,-0.01341,-0.02049,2.36440,0.49814,0.31159,-0.30000,-0.63210,-4.14505,797.25079,823.48431,0.57634,12.77758,0.62650,-0.35229,-8.70485,9.22926,8.87697
39.06700,0.79563,0.21806,-0.68693,-0.01155,0.30697,-1.05188,-0.01331,0.00471,2.22641,-0.01341,-0.02049,2.36440,0.49814,0.31159,-0.30000,-0.63210,-4.14603,797.34503,1151.50463,0.57633,12.77861,0.62650,-0.35124,-8.70485,9.22926,8.87802
39.06800,0.79563,0.21806,-0.68693,-0.01155,0.30697,-1.05188,-0.01331,0.00471,2.22641,-0.01341,-0.02049,2.36440,0.49814,0.31159,-0.30000,-0.63210,-4.14603,797.34503,1198.39501,0.57633,12.77964,0.62650,-0.35014,-8.67829,9.22926,8.87912
39.06900,0.81451,0.18447,-0.63382,-0.01703,0.30571,-1.05052,-0.01103,0.00311,2.22641,-0.01348,-0.01730,2.35368,0.48975,0.33314,-0.30000,-0.62650,-4.18895,801.46136,823.48431,0.57995,12.78067,0.62650,-0.34885,-8.67829,9.31879,8.96993
39.06999,0.81451,0.18447,-0.63382,-0.01703,0.30571,-1.05052,-0.01103,0.00311,2.22641,-0.01348,-0.01730,2.35368,0.48975,0.33314,-0.30000,-0.62650,-4.18895,801.46136,823.48431,0.57995,12.78169,0.62650,-0.34773,-8.75442,9.31879,8.97105
39.07099,0.81451,0.18447,-0.63382,-0.01784,0.29977,-1.05464,-0.01103,0.00311,2.22641,-0.01348,-0.01730,2.35368,0.48975,0.33314,-0.30000,-0.62650,-4.19001,801.56219,823.48431,0.57995,12.78271,0.62650,-0.34660,-8.75448,9.31879,8.97218
39.07199,0.81451,0.18447,-0.63382,-0.01784,0.29977,-1.05464,-0.01103,0.00311,2.22641,-0.01348,-0.01730,2.35368,0.48975,0.33314,-0.30000,-0.62650,-4.19001,801.56219,823.48431,0.57995,12.78372,0.62650,-0.34545,-8.74338,9.31879,8.97333
39.07300,0.81451,0.18447,-0.63382,-0.01390,0.29968,-1.05930,-0.01103,0.00311,2.22641,-0.01348,-0.01730,2.35368,0.48975,0.33314,-0.30000,-0.62650,-4.19108,801.66497,808.64678,0.57995,12.78473,0.62650,-0.34430,-8.74338,9.31879,8.97449
39.07400,0.81451,0.18447,-0.63382,-0.01390,0.29968,-1.05930,-0.01103,0.00311,2.22641,-0.01348,-0.01730,2.35368,0.48975,0.33314,-0.30000,-0.62650,-4.19108,801.66497,815.99810,0.57995,12.78574,0.62650,-0.34299,-8.66641,9.31879,8.97579
39.07500,0.81451,0.18447,-0.63382,-0.01567,0.30302,-1.05811,-0.01103,0.00311,2.22641,-0.01348,-0.01730,2.35368,0.48975,0.33314,-0.30000,-0.62650,-4.19230,801.78155,815.99810,0.57996,12.78674,0.62650,-0.34169,-8.66641,9.31879,8.97709
39.07600,0.81451,0.18447,-0.63382,-0.01567,0.30302,-1.05811,-0.01103,0.00311,2.22641,-0.01348,-0.01730,2.35368,0.48975,0.33314,-0.30000,-0.62650,-4.19230,801.78155,808.64678,0.57996,12.78773,0.62650,-0.34044,-8.69672,9.31879,8.97834
39.07699,0.81451,0.18447,-0.63382,-0.02179,0.29980,-1.05475,-0.01103,0.00311,2.22641,-0.01348,-0.01730,2.35368,0.48975,0.33314,-0.30000,-0.62650,-4.19346,801.89263,797.15625,0.57997,12.78872,0.62650,-0.33920,-8.69672,9.31879,8.97958
39.07799,0.81451,0.18447,-0.63382,-0.02179,0.29980,-1.05475,-0.01103,0.00311,2.22641,-0.01348,-0.01730,2.35368,0.48975,0.33314,-0.30000,-0.62650,-4.19346,801.89263,795.03796,0.57997,12.78971,0.62650,-0.33814,-8.78975,9.31879,8.98064
39.07899,0.72636,0.22122,-0.57956,-0.02089,0.29283,-1.05491,-0.01429,0.00507,2.22641,-0.01357,-0.01404,2.34293,0.48975,0.33314,-0.30000,-0.62650,-4.19467,802.00769,792.23114,0.57999,12.79070,0.62650,-0.33708,-8.78975,9.31925,8.98216
39.08000,0.72636,0.22122,-0.57956,-0.02089,0.29283,-1.05491,-0.01429,0.00507,2.22641,-0.01357,-0.01404,2.34293,0.48975,0.33314,-0.30000,-0.62650,-4.19467,802.00769,792.23114,0.57999,12.79168,0.62650,-0.33599,-8.77430,9.31925,8.98325
39.08100,0.72636,0.22122,-0.57956,-0.01434,0.29172,-1.05539,-0.01429,0.00507,2.22641,-0.01357,-0.01404,2.34293,0.48975,0.33314,-0.30000,-0.62650,-4.19568,802.10498,795.03796,0.57999,12.79266,0.62059,-0.33490,-8.77443,9.31925,8.98434
39.08200,0.72636,0.22122,-0.57956,-0.01434,0.29172,-1.05539,-0.01429,0.00507,2.22641,-0.01357,-0.01404,2.34293,0.48975,0.33314,-0.30000,-0.62650,-4.19568,802.10498,792.23114,0.57999,12.79363,0.62059,-0.33367,-8.70387,9.31925,8.98557
39.08300,0.72636,0.22122,-0.57956,-0.01412,0.29332,-1.05187,-0.01429,0.00507,2.22641,-0.01357,-0.01404,2.34293,0.48975,0.33314,-0.30000,-0.62650,-4.19683,802.21484,792.23114,0.58000,12.79460,0.62059,-0.33244,-8.70387,9.31925,8.98680
39.08399,0.72636,0.22122,-0.57956,-0.01412,0.29332,-1.05187,-0.01429,0.00507,2.22641,-0.01357,-0.01404,2.34293,0.48975,0.33314,-0.30000,-0.62650,-4.19683,802.21484,792.23114,0.58000,12.79556,0.62059,-0.33131,-8.75614,9.31925,8.98793
39.08499,0.72636,0.22122,-0.57956,-0.01961,0.28883,-1.04901,-0.01429,0.00507,2.22641,-0.01357,-0.01404,2.34293,0.48975,0.33314,-0.30000,-0.62650,-4.19789,802.31542,792.23114,0.58000,12.79652,0.62059,-0.33019,-8.75614,9.31925,8.98905
39.08599,0.72636,0.22122,-0.57956,-0.01961,0.28883,-1.04901,-0.01429,0.00507,2.22641,-0.01357,-0.01404,2.34293,0.48975,0.33314,-0.30000,-0.62650,-4.19789,802.31542,792.23114,0.58000,12.79747,0.62059,-0.32930,-8.87512,9.31925,8.98994
39.08700,0.72636,0.22122,-0.57956,-0.01982,0.28247,-1.05184,-0.01429,0.00507,2.22641,-0.01357,-0.01404,2.34293,0.48975,0.33314,-0.30000,-0.62650,-4.19871,802.39471,792.23114,0.57999,12.79842,0.62059,-0.32841,-8.87512,9.31925,8.99083
39.08800,0.72636,0.22122,-0.57956,-0.01982,0.28247,-1.05184,-0.01429,0.00507,2.22641,-0.01357,-0.01404,2.34293,0.48975,0.33314,-0.30000,-0.62650,-4.19871,802.39471,795.03796,0.57999,12.79937,0.62059,-0.32753,-8.88144,9.31925,8.99171
39.08900,0.85726,0.05220,-0.52787,-0.01571,0.28299,-1.05543,-0.00853,-0.00225,2.22641,-0.01370,-0.01089,2.33213,0.48089,0.34585,-0.30000,-0.62059,-4.22947,805.32806,803.57916,0.58254,12.80031,0.62059,-0.32653,-8.88144,9.38322,9.05669
39.09000,0.85726,0.05220,-0.52787,-0.01571,0.28299,-1.05543,-0.00853,-0.00225,2.22641,-0.01370,-0.01089,2.33213,0.48089,0.34585,-0.30000,-0.62059,-4.22947,805.32806,804.29919,0.58254,12.80125,0.62059,-0.32542,-8.82667,9.38322,9.05780
39.09099,0.85726,0.05220,-0.52787,-0.01694,0.28554,-1.05376,-0.00853,-0.00225,2.22641,-0.01370,-0.01089,2.33213,0.48089,0.34585,-0.30000,-0.62059,-4.23051,805.42700,804.29919,0.58255,12.80219,0.61660,-0.32431,-8.82675,9.38322,9.05891
39.09199,0.85726,0.05220,-0.52787,-0.01694,0.28554,-1.05376,-0.00853,-0.00225,2.22641,-0.01370,-0.01089,2.33213,0.48089,0.34585,-0.30000,-0.62059,-4.23051,805.42700,804.29919,0.58255,12.80312,0.61660,-0.32327,-8.86421,9.38322,9.05995
39.09299,0.85726,0.05220,-0.52787,-0.02071,0.28095,-1.05011,-0.00853,-0.00225,2.22641,-0.01370,-0.01089,2.33213,0.48089,0.34585,-0.30000,-0.62059,-4.23148,805.51928,804.29919,0.58255,12.80404,0.61660,-0.32223,-8.86421,9.38322,9.06099
39.09400,0.85726,0.05220,-0.52787,-0.02071,0.28095,-1.05011,-0.00853,-0.00225,2.22641,-0.01370,-0.01089,2.33213,0.48089,0.34585,-0.30000,-0.62059,-4.23148,805.51928,804.29919,0.58255,12.80496,0.61660,-0.32130,-8.91795,9.38322,9.06192
39.09500,0.85726,0.05220,-0.52787,-0.01716,0.27387,-1.04858,-0.00853,-0.00225,2.22641,-0.01370,-0.01089,2.33213,0.48089,0.34585,-0.30000,-0.62059,-4.23235,805.60198,816.74053,0.58254,12.80588,0.61660,-0.32037,-8.91795,9.38322,9.06285
39.09600,0.85726,0.05220,-0.52787,-0.01716,0.27387,-1.04858,-0.00853,-0.00225,2.22641,-0.01370,-0.01089,2.33213,0.48089,0.34585,-0.30000,-0.62059,-4.23235,805.60198,816.74053,0.58254,12.80679,0.61660,-0.31929,-8.84333,9.38322,9.06393
39.09700,0.85726,0.05220,-0.52787,-0.01036,0.27284,-1.04547,-0.00853,-0.00225,2.22641,-0.01370,-0.01089,2.33213,0.48089,0.34585,-0.30000,-0.62059,-4.23336,805.69799,804.29919,0.58254,12.80770,0.61660,-0.31821,-8.84333,9.38322,9.06501
39.09799,0.85726,0.05220,-0.52787,-0.01036,0.27284,-1.04547,-0.00853,-0.00225,2.22641,-0.01370,-0.01089,2.33213,0.48089,0.34585,-0.30000,-0.62059,-4.23336,805.69799,804.29919,0.58254,12.80861,0.61660,-0.31693,-8.74214,9.38322,9.06629
39.09899,0.80735,0.04669,-0.47417,-0.01077,0.27296,-1.03850,-0.00903,-0.00464,2.22641,-0.01380,-0.00782,2.32137,0.47490,0.36227,-0.30000,-0.61660,-4.26608,808.80633,804.29919,0.58526,12.80951,0.61660,-0.31551,-8.74214,9.45060,9.13509
39.09999,0.80735,0.04669,-0.47417,-0.01077,0.27296,-1.03850,-0.00903,-0.00464,2.22641,-0.01380,-0.00782,2.32137,0.47490,0.36227,-0.30000,-0.61660,-4.26608,808.80633,800.71173,0.58526,12.81040,0.61660,-0.31415,-8.76902,9.45060,9.13645
39.10100,0.80735,0.04669,-0.47417,-0.01392,0.26673,-1.03400,-0.00903,-0.00464,2.22641,-0.01380,-0.00782,2.32137,0.47490,0.36227,-0.30000,-0.61660,-4.26736,808.92700,799.28570,0.58528,12.81130,0.61660,-0.31278,-8.76902,9.45060,9.13782
39.10200,0.80735,0.04669,-0.47417,-0.01392,0.26673,-1.03400,-0.00903,-0.00464,2.22641,-0.01380,-0.00782,2.32137,0.47490,0.36227,-0.30000,-0.61660,-4.26736,808.92700,799.28570,0.58528,12.81218,0.61660,-0.31154,-8.82921,9.45060,9.13906
39.10300,0.80735,0.04669,-0.47417,-0.00902,0.26060,-1.03576,-0.00903,-0.00464,2.22641,-0.01380,-0.00782,2.32137,0.47490,0.36227,-0.30000,-0.61660,-4.26852,809.03698,799.28570,0.58530,12.81306,0.61660,-0.31030,-8.82921,9.45060,9.14030
39.10400,0.80735,0.04669,-0.47417,-0.00902,0.26060,-1.03576,-0.00903,-0.00464,2.22641,-0.01380,-0.00782,2.32137,0.47490,0.36227,-0.30000,-0.61660,-4.26852,809.03698,800.71173,0.58530,12.81393,0.61660,-0.30896,-8.78352,9.45060,9.14163
39.10499,0.80735,0.04669,-0.47417,-0.00057,0.26257,-1.03749,-0.00903,-0.00464,2.22641,-0.01380,-0.00782,2.32137,0.47490,0.36227,-0.30000,-0.61660,-4.26976,809.15509,804.29919,0.58533,12.81480,0.61660,-0.30763,-8.78352,9.45060,9.14297
39.10599,0.80735,0.04669,-0.47417,-0.00057,0.26257,-1.03749,-0.00903,-0.00464,2.22641,-0.01380,-0.00782,2.32137,0.47490,0.36227,-0.30000,-0.61660,-4.26976,809.15509,800.71173,0.58533,12.81566,0.61660,-0.30619,-8.73155,9.45060,9.14441
39.10699,0.80735,0.04669,-0.47417,0.00071,0.26550,-1.03431,-0.00903,-0.00464,2.22641,-0.01380,-0.00782,2.32137,0.47490,0.36227,-0.30000,-0.61660,-4.27111,809.28234,800.71173,0.58537,12.81651,0.61660,-0.30475,-8.73155,9.45060,9.14585
39.10800,0.80735,0.04669,-0.47417,0.00071,0.26550,-1.03431,-0.00903,-0.00464,2.22641,-0.01380,-0.00782,2.32137,0.47490,0.36227,-0.30000,-0.61660,-4.27111,809.28234,804.29919,0.58537,12.81736,0.61660,-0.30345,-8.80062,9.45060,9.14715
39.10900,0.74605,0.14830,-0.41957,-0.00074,0.26079,-1.03014,-0.01180,-0.00050,2.22641,-0.01388,-0.00490,2.31073,0.47490,0.36227,-0.30000,-0.61660,-4.27240,809.40502,804.29919,0.58540,12.81820,0.61660,-0.30215,-8.80062,9.45078,9.14862
39.11000,0.74605,0.14830,-0.41957,-0.00074,0.26079,-1.03014,-0.01180,-0.00050,2.22641,-0.01388,-0.00490,2.31073,0.47490,0.36227,-0.30000,-0.61660,-4.27240,809.40502,807.19238,0.58540,12.81904,0.61660,-0.30101,-8.87955,9.45078,9.14976
39.11100,0.74605,0.14830,-0.41957,0.00524,0.25503,-1.02725,-0.01180,-0.00050,2.22641,-0.01388,-0.00490,2.31073,0.47490,0.36227,-0.30000,-0.61660,-4.27347,809.50610,810.10638,0.58541,12.81987,0.61020,-0.29987,-8.87958,9.45078,9.15090
39.11199,0.74605,0.14830,-0.41957,0.00524,0.25503,-1.02725,-0.01180,-0.00050,2.22641,-0.01388,-0.00490,2.31073,0.47490,0.36227,-0.30000,-0.61660,-4.27347,809.50610,810.10638,0.58541,12.82069,0.61020,-0.29867,-8.84969,9.45078,9.15211
39.11299,0.74605,0.14830,-0.41957,0.01432,0.25597,-1.02068,-0.01180,-0.00050,2.22641,-0.01388,-0.00490,2.31073,0.47490,0.36227,-0.30000,-0.61660,-4.27459,809.61242,810.10638,0.58544,12.82151,0.61020,-0.29746,-8.84969,9.45078,9.15331
39.11399,0.74605,0.14830,-0.41957,0.01432,0.25597,-1.02068,-0.01180,-0.00050,2.22641,-0.01388,-0.00490,2.31073,0.47490,0.36227,-0.30000,-0.61660,-4.27459,809.61242,810.10638,0.58544,12.82232,0.61020,-0.29622,-8.82753,9.45078,9.15455
39.11500,0.74605,0.14830,-0.41957,0.01710,0.25684,-1.00941,-0.01180,-0.00050,2.22641,-0.01388,-0.00490,2.31073,0.47490,0.36227,-0.30000,-0.61660,-4.27576,809.72265,807.91894,0.58546,12.82313,0.61020,-0.29497,-8.82753,9.45078,9.15580
39.11600,0.74605,0.14830,-0.41957,0.01710,0.25684,-1.00941,-0.01180,-0.00050,2.22641,-0.01388,-0.00490,2.31073,0.47490,0.36227,-0.30000,-0.61660,-4.27576,809.72265,807.19238,0.58546,12.82393,0.61020,-0.29389,-8.91077,9.45078,9.15688
39.11700,0.74605,0.14830,-0.41957,0.01776,0.25111,-1.00102,-0.01180,-0.00050,2.22641,-0.01388,-0.00490,2.31073,0.47490,0.36227,-0.30000,-0.61660,-4.27677,809.81823,807.19238,0.58547,12.82473,0.61020,-0.29281,-8.91077,9.45078,9.15796
39.11800,0.74605,0.14830,-0.41957,0.01776,0.25111,-1.00102,-0.01180,-0.00050,2.22641,-0.01388,-0.00490,2.31073,0.47490,0.36227,-0.30000,-0.61660,-4.27677,809.81823,807.91894,0.58547,12.82551,0.61020,-0.29186,-8.97773,9.45078,9.15891
39.11899,0.82493,0.08437,-0.36774,0.02388,0.24642,-0.99869,-0.00876,-0.00182,2.22641,-0.01381,-0.00207,2.30019,0.46530,0.37443,-0.30000,-0.61020,-4.30806,812.77569,807.91894,0.58806,12.82630,0.61020,-0.29079,-8.97773,9.51577,9.22497
39.11999,0.82493,0.08437,-0.36774,0.02388,0.24642,-0.99869,-0.00876,-0.00182,2.22641,-0.01381,-0.00207,2.30019,0.46530,0.37443,-0.30000,-0.61020,-4.30806,812.77569,805.02056,0.58806,12.82707,0.61020,-0.28964,-8.94244,9.51577,9.22612
39.12099,0.82493,0.08437,-0.36774,0.02978,0.24885,-0.99563,-0.00876,-0.00182,2.22641,-0.01381,-0.00207,2.30019,0.46530,0.37443,-0.30000,-0.61020,-4.30913,812.87677,805.02056,0.58808,12.82784,0.60370,-0.28849,-8.94244,9.51577,9.22727
39.12200,0.82493,0.08437,-0.36774,0.02978,0.24885,-0.99563,-0.00876,-0.00182,2.22641,-0.01381,-0.00207,2.30019,0.46530,0.37443,-0.30000,-0.61020,-4.30913,812.87677,805.02056,0.58808,12.82861,0.60370,-0.28732,-8.92674,9.51577,9.22845
39.12300,0.82493,0.08437,-0.36774,0.02895,0.25023,-0.98796,-0.00876,-0.00182,2.22641,-0.01381,-0.00207,2.30019,0.46530,0.37443,-0.30000,-0.61020,-4.31023,812.98052,805.02056,0.58810,12.82937,0.60370,-0.28614,-8.92674,9.51577,9.22962
39.12400,0.82493,0.08437,-0.36774,0.02895,0.25023,-0.98796,-0.00876,-0.00182,2.22641,-0.01381,-0.00207,2.30019,0.46530,0.37443,-0.30000,-0.61020,-4.31023,812.98052,805.02056,0.58810,12.83012,0.60370,-0.28512,-9.00485,9.51577,9.23065
39.12500,0.82493,0.08437,-0.36774,0.02919,0.24502,-0.98013,-0.00876,-0.00182,2.22641,-0.01381,-0.00207,2.30019,0.46530,0.37443,-0.30000,-0.61020,-4.31119,813.07055,805.02056,0.58812,12.83087,0.60370,-0.28410,-9.00485,9.51577,9.23167
39.12599,0.82493,0.08437,-0.36774,0.02919,0.24502,-0.98013,-0.00876,-0.00182,2.22641,-0.01381,-0.00207,2.30019,0.46530,0.37443,-0.30000,-0.61020,-4.31119,813.07055,805.02056,0.58812,12.83162,0.60370,-0.28315,-9.04196,9.51577,9.23262
39.12699,0.82493,0.08437,-0.36774,0.03782,0.24159,-0.97332,-0.00876,-0.00182,2.22641,-0.01381,-0.00207,2.30019,0.46530,0.37443,-0.30000,-0.61020,-4.31207,813.15405,805.02056,0.58812,12.83236,0.60370,-0.28220,-9.04196,9.51577,9.23356
39.12799,0.82493,0.08437,-0.36774,0.03782,0.24159,-0.97332,-0.00876,-0.00182,2.22641,-0.01381,-0.00207,2.30019,0.46530,0.37443,-0.30000,-0.61020,-4.31207,813.15405,807.91894,0.58812,12.83309,0.60370,-0.28112,-8.97550,9.51577,9.23464
39.12900,0.82981,-0.03090,-0.31818,0.04676,0.24457,-0.96274,-0.00748,-0.00716,2.22641,-0.01353,0.00066,2.28996,0.45555,0.39033,-0.30000,-0.60370,-4.34916,816.64349,807.91894,0.59119,12.83382,0.60370,-0.27988,-8.97550,9.59287,9.31298
39.13000,0.82981,-0.03090,-0.31818,0.04676,0.24457,-0.96274,-0.00748,-0.00716,2.22641,-0.01353,0.00066,2.28996,0.45555,0.39033,-0.30000,-0.60370,-4.34916,816.64349,807.91894,0.59119,12.83454,0.60370,-0.27861,-8.95378,9.59287,9.31426
39.13100,0.82981,-0.03090,-0.31818,0.04860,0.24497,-0.94961,-0.00748,-0.00716,2.22641,-0.01353,0.00066,2.28996,0.45555,0.39033,-0.30000,-0.60370,-4.35035,816.75561,807.91894,0.59123,12.83526,0.60370,-0.27733,-8.95381,9.59287,9.31554
39.13199,0.82981,-0.03090,-0.31818,0.04860,0.24497,-0.94961,-0.00748,-0.00716,2.22641,-0.01353,0.00066,2.28996,0.45555,0.39033,-0.30000,-0.60370,-4.35035,816.75561,808.64678,0.59123,12.83597,0.60370,-0.27622,-9.03942,9.59287,9.31664
39.13299,0.82981,-0.03090,-0.31818,0.05053,0.23911,-0.94181,-0.00748,-0.00716,2.22641,-0.01353,0.00066,2.28996,0.45555,0.39033,-0.30000,-0.60370,-4.35139,816.85260,807.91894,0.59125,12.83667,0.60370,-0.27511,-9.03942,9.59287,9.31775
39.13399,0.82981,-0.03090,-0.31818,0.05053,0.23911,-0.94181,-0.00748,-0.00716,2.22641,-0.01353,0.00066,2.28996,0.45555,0.39033,-0.30000,-0.60370,-4.35139,816.85260,808.64678,0.59125,12.83737,0.60370,-0.27412,-9.09567,9.59287,9.31875
39.13499,0.82981,-0.03090,-0.31818,0.05759,0.23722,-0.93994,-0.00748,-0.00716,2.22641,-0.01353,0.00066,2.28996,0.45555,0.39033,-0.30000,-0.60370,-4.35232,816.93981,807.91894,0.59126,12.83807,0.60370,-0.27313,-9.09567,9.59287,9.31974
39.13600,0.82981,-0.03090,-0.31818,0.05759,0.23722,-0.93994,-0.00748,-0.00716,2.22641,-0.01353,0.00066,2.28996,0.45555,0.39033,-0.30000,-0.60370,-4.35232,816.93981,807.91894,0.59126,12.83875,0.60370,-0.27208,-9.06807,9.59287,9.32079
39.13700,0.82981,-0.03090,-0.31818,0.06083,0.24306,-0.93608,-0.00748,-0.00716,2.22641,-0.01353,0.00066,2.28996,0.45555,0.39033,-0.30000,-0.60370,-4.35330,817.03173,808.64678,0.59128,12.83943,0.60370,-0.27103,-9.06807,9.59287,9.32184
39.13800,0.82981,-0.03090,-0.31818,0.06083,0.24306,-0.93608,-0.00748,-0.00716,2.22641,-0.01353,0.00066,2.28996,0.45555,0.39033,-0.30000,-0.60370,-4.35330,817.03173,808.64678,0.59128,12.84011,0.60370,-0.27000,-9.08193,9.59287,9.32286
39.13899,0.76440,0.07431,-0.26746,0.05574,0.24595,-0.92790,-0.00988,-0.00319,2.22641,-0.01306,0.00338,2.28010,0.45555,0.39033,-0.30000,-0.60370,-4.35425,817.12145,808.64678,0.59130,12.84077,0.60370,-0.26898,-9.08193,9.59287,9.32389
39.13999,0.76440,0.07431,-0.26746,0.05574,0.24595,-0.92790,-0.00988,-0.00319,2.22641,-0.01306,0.00338,2.28010,0.45555,0.39033,-0.30000,-0.60370,-4.35425,817.12145,808.64678,0.59130,12.84143,0.60370,-0.26813,-9.16571,9.59287,9.32474
39.14099,0.76440,0.07431,-0.26746,0.05292,0.24147,-0.92043,-0.00988,-0.00319,2.22641,-0.01306,0.00338,2.28010,0.45555,0.39033,-0.30000,-0.60370,-4.35505,817.19635,808.64678,0.59131,12.84208,0.59689,-0.26727,-9.16571,9.59287,9.32559
39.14199,0.76440,0.07431,-0.26746,0.05292,0.24147,-0.92043,-0.00988,-0.00319,2.22641,-0.01306,0.00338,2.28010,0.45555,0.39033,-0.30000,-0.60370,-4.35505,817.19635,808.64678,0.59131,12.84272,0.59689,-0.26643,-9.17235,9.59287,9.32643
39.14300,0.76440,0.07431,-0.26746,0.05781,0.23875,-0.91358,-0.00988,-0.00319,2.22641,-0.01306,0.00338,2.28010,0.45555,0.39033,-0.30000,-0.60370,-4.35584,817.27001,805.74316,0.59132,12.84336,0.59689,-0.26559,-9.17235,9.59287,9.32728
39.14400,0.76440,0.07431,-0.26746,0.05781,0.23875,-0.91358,-0.00988,-0.00319,2.22641,-0.01306,0.00338,2.28010,0.45555,0.39033,-0.30000,-0.60370,-4.35584,817.27001,808.64678,0.59132,12.84399,0.59689,-0.26458,-9.08707,9.59287,9.32829
39.14500,0.76440,0.07431,-0.26746,0.06064,0.24081,-0.90250,-0.00988,-0.00319,2.22641,-0.01306,0.00338,2.28010,0.45555,0.39033,-0.30000,-0.60370,-4.35678,817.35864,813.04156,0.59134,12.84461,0.59689,-0.26357,-9.08707,9.59287,9.32930
39.14599,0.76440,0.07431,-0.26746,0.06064,0.24081,-0.90250,-0.00988,-0.00319,2.22641,-0.01306,0.00338,2.28010,0.45555,0.39033,-0.30000,-0.60370,-4.35678,817.35864,813.04156,0.59134,12.84523,0.59689,-0.26252,-9.06957,9.59287,9.33035
39.14699,0.76440,0.07431,-0.26746,0.05670,0.23942,-0.88952,-0.00988,-0.00319,2.22641,-0.01306,0.00338,2.28010,0.45555,0.39033,-0.30000,-0.60370,-4.35776,817.45031,812.30578,0.59136,12.84584,0.59689,-0.26148,-9.06957,9.59287,9.33139
39.14799,0.76440,0.07431,-0.26746,0.05670,0.23942,-0.88952,-0.00988,-0.00319,2.22641,-0.01306,0.00338,2.28010,0.45555,0.39033,-0.30000,-0.60370,-4.35776,817.45031,812.30578,0.59136,12.84644,0.59689,-0.26056,-9.13426,9.59287,9.33231
39.14899,0.78585,-0.08013,-0.22198,0.05492,0.23410,-0.88117,-0.00935,-0.00947,2.22641,-0.01246,0.00607,2.27061,0.44534,0.40350,-0.30000,-0.59689,-4.39158,820.61651,812.30578,0.59415,12.84703,0.59689,-0.25950,-9.13426,9.66332,9.40382
39.15000,0.78585,-0.08013,-0.22198,0.05492,0.23410,-0.88117,-0.00935,-0.00947,2.22641,-0.01246,0.00607,2.27061,0.44534,0.40350,-0.30000,-0.59689,-4.39158,820.61651,812.30578,0.59415,12.84762,0.59689,-0.25842,-9.12507,9.66332,9.40490
39.15100,0.78585,-0.08013,-0.22198,0.05821,0.23391,-0.87549,-0.00935,-0.00947,2.22641,-0.01246,0.00607,2.27061,0.44534,0.40350,-0.30000,-0.59689,-4.39259,820.71051,812.30578,0.59418,12.84820,0.58979,-0.25735,-9.12509,9.66332,9.40597
39.15200,0.78585,-0.08013,-0.22198,0.05821,0.23391,-0.87549,-0.00935,-0.00947,2.22641,-0.01246,0.00607,2.27061,0.44534,0.40350,-0.30000,-0.59689,-4.39259,820.71051,812.30578,0.59418,12.84877,0.58979,-0.25609,-9.03394,9.66332,9.40723
39.15299,0.78585,-0.08013,-0.22198,0.05797,0.23745,-0.86584,-0.00935,-0.00947,2.22641,-0.01246,0.00607,2.27061,0.44534,0.40350,-0.30000,-0.59689,-4.39376,820.82031,813.04156,0.59423,12.84933,0.58979,-0.25483,-9.03394,9.66332,9.40849
39.15399,0.78585,-0.08013,-0.22198,0.05797,0.23745,-0.86584,-0.00935,-0.00947,2.22641,-0.01246,0.00607,2.27061,0.44534,0.40350,-0.30000,-0.59689,-4.39376,820.82031,813.04156,0.59423,12.84989,0.58979,-0.25356,-9.02770,9.66332,9.40976
39.15499,0.78585,-0.08013,-0.22198,0.05343,0.23399,-0.85315,-0.00935,-0.00947,2.22641,-0.01246,0.00607,2.27061,0.44534,0.40350,-0.30000,-0.59689,-4.39495,820.93121,820.47338,0.59428,12.85044,0.58979,-0.25229,-9.02770,9.66332,9.41103
39.15599,0.78585,-0.08013,-0.22198,0.05343,0.23399,-0.85315,-0.00935,-0.00947,2.22641,-0.01246,0.00607,2.27061,0.44534,0.40350,-0.30000,-0.59689,-4.39495,820.93121,812.30578,0.59428,12.85097,0.58979,-0.25118,-9.10809,9.66332,9.41214
39.15700,0.78585,-0.08013,-0.22198,0.05382,0.22484,-0.84177,-0.00935,-0.00947,2.22641,-0.01246,0.00607,2.27061,0.44534,0.40350,-0.30000,-0.59689,-4.39599,821.02807,820.47338,0.59431,12.85150,0.58979,-0.25007,-9.10809,9.66332,9.41325
39.15800,0.78585,-0.08013,-0.22198,0.05382,0.22484,-0.84177,-0.00935,-0.00947,2.22641,-0.01246,0.00607,2.27061,0.44534,0.40350,-0.30000,-0.59689,-4.39599,821.02807,820.47338,0.59431,12.85202,0.58979,-0.24893,-9.09491,9.66332,9.41439
39.15900,0.83696,-0.13705,-0.17731,0.05811,0.22084,-0.82911,-0.00653,-0.01404,2.22641,-0.01188,0.00877,2.26155,0.43469,0.41836,-0.30000,-0.58979,-4.43301,824.47796,820.47338,0.59736,12.85254,0.58979,-0.24764,-9.09491,9.74017,9.49253
39.15999,0.83696,-0.13705,-0.17731,0.05811,0.22084,-0.82911,-0.00653,-0.01404,2.22641,-0.01188,0.00877,2.26155,0.43469,0.41836,-0.30000,-0.58979,-4.43301,824.47796,806.46710,0.59736,12.85304,0.58979,-0.24616,-9.00107,9.74017,9.49400
39.16099,0.83696,-0.13705,-0.17731,0.05548,0.22064,-0.81163,-0.00653,-0.01404,2.22641,-0.01188,0.00877,2.26155,0.43469,0.41836,-0.30000,-0.58979,-4.43439,824.60632,806.46710,0.59743,12.85354,0.58979,-0.24468,-9.00107,9.74017,9.49548
39.16199,0.83696,-0.13705,-0.17731,0.05548,0.22064,-0.81163,-0.00653,-0.01404,2.22641,-0.01188,0.00877,2.26155,0.43469,0.41836,-0.30000,-0.58979,-4.43439,824.60632,819.72406,0.59743,12.85403,0.58979,-0.24321,-9.00518,9.74017,9.49695
39.16299,0.83696,-0.13705,-0.17731,0.04724,0.21454,-0.79445,-0.00653,-0.01404,2.22641,-0.01188,0.00877,2.26155,0.43469,0.41836,-0.30000,-0.58979,-4.43576,824.73400,824.99804,0.59750,12.85451,0.58979,-0.24174,-9.00518,9.74017,9.49842
39.16400,0.83696,-0.13705,-0.17731,0.04724,0.21454,-0.79445,-0.00653,-0.01404,2.22641,-0.01188,0.00877,2.26155,0.43469,0.41836,-0.30000,-0.58979,-4.43576,824.73400,819.72406,0.59750,12.85499,0.58979,-0.24040,-9.06797,9.74017,9.49977
39.16500,0.83696,-0.13705,-0.17731,0.04493,0.20502,-0.78281,-0.00653,-0.01404,2.22641,-0.01188,0.00877,2.26155,0.43469,0.41836,-0.30000,-0.58979,-4.43702,824.85076,822.72949,0.59756,12.85545,0.58979,-0.23905,-9.06797,9.74017,9.50111
39.16600,0.83696,-0.13705,-0.17731,0.04493,0.20502,-0.78281,-0.00653,-0.01404,2.22641,-0.01188,0.00877,2.26155,0.43469,0.41836,-0.30000,-0.58979,-4.43702,824.85076,819.72406,0.59756,12.85591,0.58979,-0.23762,-9.02453,9.74017,9.50254
39.16699,0.83696,-0.13705,-0.17731,0.04796,0.20130,-0.77168,-0.00653,-0.01404,2.22641,-0.01188,0.00877,2.26155,0.43469,0.41836,-0.30000,-0.58979,-4.43835,824.97497,819.72406,0.59763,12.85636,0.58979,-0.23619,-9.02453,9.74017,9.50397
39.16799,0.83696,-0.13705,-0.17731,0.04796,0.20130,-0.77168,-0.00653,-0.01404,2.22641,-0.01188,0.00877,2.26155,0.43469,0.41836,-0.30000,-0.58979,-4.43835,824.97497,818.97613,0.59763,12.85680,0.58979,-0.23459,-8.93717,9.74017,9.50558
39.16899,0.77085,0.00394,-0.13307,0.04639,0.19990,-0.75515,-0.00858,-0.00869,2.22641,-0.01136,0.01133,2.25304,0.43469,0.41836,-0.30000,-0.58979,-4.43965,825.09521,819.72406,0.59770,12.85722,0.58979,-0.23298,-8.93717,9.73973,9.50675
39.16999,0.77085,0.00394,-0.13307,0.04639,0.19990,-0.75515,-0.00858,-0.00869,2.22641,-0.01136,0.01133,2.25304,0.43469,0.41836,-0.30000,-0.58979,-4.43965,825.09521,819.72406,0.59770,12.85764,0.58979,-0.23142,-8.96050,9.73973,9.50830
39.17100,0.77085,0.00394,-0.13307,0.04172,0.19222,-0.73679,-0.00858,-0.00869,2.22641,-0.01136,0.01133,2.25304,0.43469,0.41836,-0.30000,-0.58979,-4.44110,825.23046,822.72949,0.59778,12.85804,0.58500,-0.22986,-8.96051,9.73973,9.50986
39.17200,0.77085,0.00394,-0.13307,0.04172,0.19222,-0.73679,-0.00858,-0.00869,2.22641,-0.01136,0.01133,2.25304,0.43469,0.41836,-0.30000,-0.58979,-4.44110,825.23046,828.80694,0.59778,12.85844,0.58500,-0.22841,-9.01477,9.73973,9.51131
39.17300,0.77085,0.00394,-0.13307,0.04249,0.18257,-0.72097,-0.00858,-0.00869,2.22641,-0.01136,0.01133,2.25304,0.43469,0.41836,-0.30000,-0.58979,-4.44246,825.35626,828.80694,0.59786,12.85883,0.58500,-0.22696,-9.01477,9.73973,9.51276
39.17399,0.77085,0.00394,-0.13307,0.04249,0.18257,-0.72097,-0.00858,-0.00869,2.22641,-0.01136,0.01133,2.25304,0.43469,0.41836,-0.30000,-0.58979,-4.44246,825.35626,822.72949,0.59786,12.85921,0.58500,-0.22540,-8.95999,9.73973,9.51432
39.17499,0.77085,0.00394,-0.13307,0.04565,0.17838,-0.70419,-0.00858,-0.00869,2.22641,-0.01136,0.01133,2.25304,0.43469,0.41836,-0.30000,-0.58979,-4.44391,825.49157,822.72949,0.59794,12.85958,0.58500,-0.22384,-8.95999,9.73973,9.51588
39.17599,0.77085,0.00394,-0.13307,0.04565,0.17838,-0.70419,-0.00858,-0.00869,2.22641,-0.01136,0.01133,2.25304,0.43469,0.41836,-0.30000,-0.58979,-4.44391,825.49157,828.04235,0.59794,12.85994,0.58500,-0.22218,-8.90552,9.73973,9.51755
39.17699,0.77085,0.00394,-0.13307,0.04371,0.17345,-0.68405,-0.00858,-0.00869,2.22641,-0.01136,0.01133,2.25304,0.43469,0.41836,-0.30000,-0.58979,-4.44547,825.63629,828.04235,0.59804,12.86028,0.58500,-0.22051,-8.90552,9.73973,9.51922
39.17800,0.77085,0.00394,-0.13307,0.04371,0.17345,-0.68405,-0.00858,-0.00869,2.22641,-0.01136,0.01133,2.25304,0.43469,0.41836,-0.30000,-0.58979,-4.44547,825.63629,828.04235,0.59804,12.86062,0.58500,-0.21898,-8.97673,9.73973,9.52074
39.17900,0.79974,-0.15245,-0.09611,0.04184,0.16070,-0.66579,-0.00741,-0.01473,2.22641,-0.01095,0.01366,2.24530,0.42750,0.43045,-0.30000,-0.58500,-4.47425,828.30456,828.04235,0.60040,12.86095,0.58500,-0.21734,-8.97673,9.79819,9.58084
39.18000,0.79974,-0.15245,-0.09611,0.04184,0.16070,-0.66579,-0.00741,-0.01473,2.22641,-0.01095,0.01366,2.24530,0.42750,0.43045,-0.30000,-0.58500,-4.47425,828.30456,822.72949,0.60040,12.86126,0.58500,-0.21584,-9.04718,9.79819,9.58235
39.18099,0.79974,-0.15245,-0.09611,0.04766,0.14833,-0.65197,-0.00741,-0.01473,2.22641,-0.01095,0.01366,2.24530,0.42750,0.43045,-0.30000,-0.58500,-4.47565,828.43438,821.22412,0.60049,12.86157,0.58500,-0.21433,-9.04724,9.79819,9.58385
39.18199,0.79974,-0.15245,-0.09611,0.04766,0.14833,-0.65197,-0.00741,-0.01473,2.22641,-0.01095,0.01366,2.24530,0.42750,0.43045,-0.30000,-0.58500,-4.47565,828.43438,821.22412,0.60049,12.86187,0.58500,-0.21276,-9.01030,9.79819,9.58542
39.18299,0.79974,-0.15245,-0.09611,0.05462,0.14461,-0.63692,-0.00741,-0.01473,2.22641,-0.01095,0.01366,2.24530,0.42750,0.43045,-0.30000,-0.58500,-4.47713,828.57055,821.22412,0.60059,12.86216,0.58500,-0.21118,-9.01030,9.79819,9.58700
39.18399,0.79974,-0.15245,-0.09611,0.05462,0.14461,-0.63692,-0.00741,-0.01473,2.22641,-0.01095,0.01366,2.24530,0.42750,0.43045,-0.30000,-0.58500,-4.47713,828.57055,821.22412,0.60059,12.86243,0.58500,-0.20957,-8.99037,9.79819,9.58862
39.18500,0.79974,-0.15245,-0.09611,0.05457,0.14215,-0.61823,-0.00741,-0.01473,2.22641,-0.01095,0.01366,2.24530,0.42750,0.43045,-0.30000,-0.58500,-4.47864,828.71020,821.22412,0.60069,12.86270,0.58500,-0.20795,-8.99037,9.79819,9.59023
39.18600,0.79974,-0.15245,-0.09611,0.05457,0.14215,-0.61823,-0.00741,-0.01473,2.22641,-0.01095,0.01366,2.24530,0.42750,0.43045,-0.30000,-0.58500,-4.47864,828.71020,820.47338,0.60069,12.86295,0.58500,-0.20648,-9.06427,9.79819,9.59170
39.18700,0.79974,-0.15245,-0.09611,0.05415,0.13372,-0.60142,-0.00741,-0.01473,2.22641,-0.01095,0.01366,2.24530,0.42750,0.43045,-0.30000,-0.58500,-4.48001,828.83703,818.97613,0.60078,12.86320,0.58500,-0.20502,-9.06427,9.79819,9.59317
39.18799,0.79974,-0.15245,-0.09611,0.05415,0.13372,-0.60142,-0.00741,-0.01473,2.22641,-0.01095,0.01366,2.24530,0.42750,0.43045,-0.30000,-0.58500,-4.48001,828.83703,818.97613,0.60078,12.86343,0.58500,-0.20363,-9.10664,9.79819,9.59455
39.18899,0.76671,-0.03688,-0.06051,0.06087,0.12569,-0.58823,-0.00863,-0.01023,2.22641,-0.01053,0.01560,2.23844,0.42750,0.43045,-0.30000,-0.58500,-4.48109,828.93682,822.72949,0.60084,12.86366,0.58500,-0.20225,-9.10664,9.79773,9.59548
39.18999,0.76671,-0.03688,-0.06051,0.06087,0.12569,-0.58823,-0.00863,-0.01023,2.22641,-0.01053,0.01560,2.23844,0.42750,0.43045,-0.30000,-0.58500,-4.48109,828.93682,822.72949,0.60084,12.86388,0.58500,-0.20081,-9.07746,9.79773,9.59692
39.19100,0.76671,-0.03688,-0.06051,0.06829,0.12213,-0.57326,-0.00863,-0.01023,2.22641,-0.01053,0.01560,2.23844,0.42750,0.43045,-0.30000,-0.58500,-4.48243,829.06127,822.72949,0.60094,12.86408,0.57770,-0.19937,-9.07747,9.79773,9.59836
39.19200,0.76671,-0.03688,-0.06051,0.06829,0.12213,-0.57326,-0.00863,-0.01023,2.22641,-0.01053,0.01560,2.23844,0.42750,0.43045,-0.30000,-0.58500,-4.48243,829.06127,822.72949,0.60094,12.86428,0.57770,-0.19800,-9.11088,9.79773,9.59973
39.19300,0.76671,-0.03688,-0.06051,0.07080,0.11547,-0.55568,-0.00863,-0.01023,2.22641,-0.01053,0.01560,2.23844,0.42750,0.43045,-0.30000,-0.58500,-4.48371,829.17993,822.72949,0.60102,12.86446,0.57770,-0.19662,-9.11088,9.79773,9.60111
39.19400,0.76671,-0.03688,-0.06051,0.07080,0.11547,-0.55568,-0.00863,-0.01023,2.22641,-0.01053,0.01560,2.23844,0.42750,0.43045,-0.30000,-0.58500,-4.48371,829.17993,822.72949,0.60102,12.86464,0.57770,-0.19548,-9.22872,9.79773,9.60224
39.19499,0.76671,-0.03688,-0.06051,0.07548,0.10385,-0.54065,-0.00863,-0.01023,2.22641,-0.01053,0.01560,2.23844,0.42750,0.43045,-0.30000,-0.58500,-4.48478,829.27819,822.72949,0.60110,12.86481,0.57770,-0.19435,-9.22872,9.79773,9.60338
39.19599,0.76671,-0.03688,-0.06051,0.07548,0.10385,-0.54065,-0.00863,-0.01023,2.22641,-0.01053,0.01560,2.23844,0.42750,0.43045,-0.30000,-0.58500,-4.48478,829.27819,818.97613,0.60110,12.86497,0.57770,-0.19333,-9.29133,9.79773,9.60440
39.19699,0.76671,-0.03688,-0.06051,0.08564,0.09713,-0.52757,-0.00863,-0.01023,2.22641,-0.01053,0.01560,2.23844,0.42750,0.43045,-0.30000,-0.58500,-4.48572,829.36566,825.75701,0.60116,12.86511,0.57770,-0.19232,-9.29133,9.79773,9.60541
39.19800,0.76671,-0.03688,-0.06051,0.08564,0.09713,-0.52757,-0.00863,-0.01023,2.22641,-0.01053,0.01560,2.23844,0.42750,0.43045,-0.30000,-0.58500,-4.48572,829.36566,825.75701,0.60116,12.86525,0.57770,-0.19128,-9.27733,9.79773,9.60645
39.19900,0.75361,-0.20858,-0.03196,0.09220,0.09714,-0.51061,-0.00953,-0.01743,2.22641,-0.00991,0.01720,2.23239,0.41655,0.43723,-0.30000,-0.57770,-4.51209,831.79986,831.87939,0.60333,12.86538,0.57770,-0.19013,-9.27733,9.85201,9.66187
39.20000,0.75361,-0.20858,-0.03196,0.09220,0.09714,-0.51061,-0.00953,-0.01743,2.22641,-0.00991,0.01720,2.23239,0.41655,0.43723,-0.30000,-0.57770,-4.51209,831.79986,823.48431,0.60333,12.86551,0.57770,-0.18908,-9.32825,9.85201,9.66292
39.20100,0.75361,-0.20858,-0.03196,0.09205,0.09349,-0.49090,-0.00953,-0.01743,2.22641,-0.00991,0.01720,2.23239,0.41655,0.43723,-0.30000,-0.57770,-4.51307,831.89007,823.48431,0.60340,12.86562,0.57009,-0.18804,-9.32825,9.85201,9.66397
39.20199,0.75361,-0.20858,-0.03196,0.09205,0.09349,-0.49090,-0.00953,-0.01743,2.22641,-0.00991,0.01720,2.23239,0.41655,0.43723,-0.30000,-0.57770,-4.51307,831.89007,828.80694,0.60340,12.86572,0.57009,-0.18725,-9.45866,9.85201,9.66476
39.20299,0.75361,-0.20858,-0.03196,0.09422,0.08430,-0.47392,-0.00953,-0.01743,2.22641,-0.00991,0.01720,2.23239,0.41655,0.43723,-0.30000,-0.57770,-4.51381,831.95776,831.87939,0.60345,12.86582,0.57009,-0.18646,-9.45866,9.85201,9.66554
39.20399,0.75361,-0.20858,-0.03196,0.09422,0.08430,-0.47392,-0.00953,-0.01743,2.22641,-0.00991,0.01720,2.23239,0.41655,0.43723,-0.30000,-0.57770,-4.51381,831.95776,833.42425,0.60345,12.86590,0.57009,-0.18578,-9.51291,9.85201,9.66622
39.20500,0.75361,-0.20858,-0.03196,0.10050,0.07878,-0.45753,-0.00953,-0.01743,2.22641,-0.00991,0.01720,2.23239,0.41655,0.43723,-0.30000,-0.57770,-4.51444,832.01611,831.87939,0.60350,12.86598,0.57009,-0.18511,-9.51291,9.85201,9.66690
39.20600,0.75361,-0.20858,-0.03196,0.10050,0.07878,-0.45753,-0.00953,-0.01743,2.22641,-0.00991,0.01720,2.23239,0.41655,0.43723,-0.30000,-0.57770,-4.51444,832.01611,831.87939,0.60350,12.86604,0.57009,-0.18439,-9.49587,9.85201,9.66761
39.20700,0.75361,-0.20858,-0.03196,0.10221,0.07697,-0.43682,-0.00953,-0.01743,2.22641,-0.00991,0.01720,2.23239,0.41655,0.43723,-0.30000,-0.57770,-4.51511,832.07745,831.87939,0.60355,12.86609,0.57009,-0.18368,-9.49587,9.85201,9.66832
39.20800,0.75361,-0.20858,-0.03196,0.10221,0.07697,-0.43682,-0.00953,-0.01743,2.22641,-0.00991,0.01720,2.23239,0.41655,0.43723,-0.30000,-0.57770,-4.51511,832.07745,828.80694,0.60355,12.86614,0.57009,-0.18313,-9.57601,9.85201,9.66888
39.20899,0.83151,-0.20669,-0.00544,0.10003,0.07006,-0.41537,-0.00569,-0.01966,2.22641,-0.00899,0.01849,2.22713,0.40514,0.45101,-0.30000,-0.57009,-4.55103,835.38073,830.34033,0.60650,12.86617,0.57009,-0.18243,-9.57601,9.92767,9.74524
39.20999,0.83151,-0.20669,-0.00544,0.10003,0.07006,-0.41537,-0.00569,-0.01966,2.22641,-0.00899,0.01849,2.22713,0.40514,0.45101,-0.30000,-0.57009,-4.55103,835.38073,828.80694,0.60650,12.86619,0.57009,-0.18200,-9.71324,9.92767,9.74567
39.21099,0.83151,-0.20669,-0.00544,0.10376,0.06087,-0.39845,-0.00569,-0.01966,2.22641,-0.00899,0.01849,2.22713,0.40514,0.45101,-0.30000,-0.57009,-4.55143,835.41748,830.34033,0.60653,12.86621,0.57009,-0.18157,-9.71324,9.92767,9.74610
39.21200,0.83151,-0.20669,-0.00544,0.10376,0.06087,-0.39845,-0.00569,-0.01966,2.22641,-0.00899,0.01849,2.22713,0.40514,0.45101,-0.30000,-0.57009,-4.55143,835.41748,828.80694,0.60653,12.86621,0.57009,-0.18114,-9.71493,9.92767,9.74652
39.21300,0.83151,-0.20669,-0.00544,0.11189,0.05944,-0.38249,-0.00569,-0.01966,2.22641,-0.00899,0.01849,2.22713,0.40514,0.45101,-0.30000,-0.57009,-4.55182,835.45391,823.48431,0.60657,12.86621,0.57009,-0.18072,-9.71493,9.92767,9.74695
39.21400,0.83151,-0.20669,-0.00544,0.11189,0.05944,-0.38249,-0.00569,-0.01966,2.22641,-0.00899,0.01849,2.22713,0.40514,0.45101,-0.30000,-0.57009,-4.55182,835.45391,823.48431,0.60657,12.86620,0.57009,-0.18012,-9.62941,9.92767,9.74755
39.21500,0.83151,-0.20669,-0.00544,0.11411,0.06196,-0.36272,-0.00569,-0.01966,2.22641,-0.00899,0.01849,2.22713,0.40514,0.45101,-0.30000,-0.57009,-4.55238,835.50506,822.72949,0.60661,12.86618,0.57009,-0.17952,-9.62941,9.92767,9.74814
39.21599,0.83151,-0.20669,-0.00544,0.11411,0.06196,-0.36272,-0.00569,-0.01966,2.22641,-0.00899,0.01849,2.22713,0.40514,0.45101,-0.30000,-0.57009,-4.55238,835.50506,823.48431,0.60661,12.86614,0.57009,-0.17893,-9.63213,9.92767,9.74873
39.21699,0.83151,-0.20669,-0.00544,0.11170,0.05806,-0.34332,-0.00569,-0.01966,2.22641,-0.00899,0.01849,2.22713,0.40514,0.45101,-0.30000,-0.57009,-4.55293,835.55572,823.48431,0.60666,12.86610,0.57009,-0.17834,-9.63213,9.92767,9.74933
39.21799,0.83151,-0.20669,-0.00544,0.11170,0.05806,-0.34332,-0.00569,-0.01966,2.22641,-0.00899,0.01849,2.22713,0.40514,0.45101,-0.30000,-0.57009,-4.55293,835.55572,823.48431,0.60666,12.86606,0.57009,-0.17780,-9.65537,9.92767,9.74987
39.21900,0.76466,-0.08238,0.01752,0.11350,0.05146,-0.32897,-0.00730,-0.01475,2.22641,-0.00790,0.01952,2.22278,0.40514,0.45101,-0.30000,-0.57009,-4.55310,835.57080,823.48431,0.60668,12.86600,0.57009,-0.17725,-9.65537,9.92694,9.74968
39.22000,0.76466,-0.08238,0.01752,0.11350,0.05146,-0.32897,-0.00730,-0.01475,2.22641,-0.00790,0.01952,2.22278,0.40514,0.45101,-0.30000,-0.57009,-4.55310,835.57080,823.48431,0.60668,12.86593,0.57009,-0.17653,-9.56539,9.92694,9.75040
39.22100,0.76466,-0.08238,0.01752,0.11712,0.05066,-0.31558,-0.00730,-0.01475,2.22641,-0.00790,0.01952,2.22278,0.40514,0.45101,-0.30000,-0.57009,-4.55377,835.63275,821.97613,0.60674,12.86585,0.56229,-0.17581,-9.56539,9.92694,9.75112
39.22200,0.76466,-0.08238,0.01752,0.11712,0.05066,-0.31558,-0.00730,-0.01475,2.22641,-0.00790,0.01952,2.22278,0.40514,0.45101,-0.30000,-0.57009,-4.55377,835.63275,821.97613,0.60674,12.86577,0.56229,-0.17491,-9.47671,9.92694,9.75202
39.22299,0.76466,-0.08238,0.01752,0.11507,0.05046,-0.29919,-0.00730,-0.01475,2.22641,-0.00790,0.01952,2.22278,0.40514,0.45101,-0.30000,-0.57009,-4.55461,835.70989,823.48431,0.60682,12.86567,0.56229,-0.17401,-9.47671,9.92694,9.75292
39.22399,0.76466,-0.08238,0.01752,0.11507,0.05046,-0.29919,-0.00730,-0.01475,2.22641,-0.00790,0.01952,2.22278,0.40514,0.45101,-0.30000,-0.57009,-4.55461,835.70989,826.51739,0.60682,12.86557,0.56229,-0.17317,-9.50827,9.92694,9.75376
39.22499,0.76466,-0.08238,0.01752,0.11180,0.04392,-0.28384,-0.00730,-0.01475,2.22641,-0.00790,0.01952,2.22278,0.40514,0.45101,-0.30000,-0.57009,-4.55539,835.78167,826.51739,0.60690,12.86546,0.56229,-0.17233,-9.50827,9.92694,9.75460
39.22600,0.76466,-0.08238,0.01752,0.11180,0.04392,-0.28384,-0.00730,-0.01475,2.22641,-0.00790,0.01952,2.22278,0.40514,0.45101,-0.30000,-0.57009,-4.55539,835.78167,826.51739,0.60690,12.86533,0.56229,-0.17154,-9.52888,9.92694,9.75539
39.22700,0.76466,-0.08238,0.01752,0.11448,0.03820,-0.27202,-0.00730,-0.01475,2.22641,-0.00790,0.01952,2.22278,0.40514,0.45101,-0.30000,-0.57009,-4.55614,835.84991,827.27917,0.60697,12.86520,0.56229,-0.17074,-9.52888,9.92694,9.75619
39.22800,0.76466,-0.08238,0.01752,0.11448,0.03820,-0.27202,-0.00730,-0.01475,2.22641,-0.00790,0.01952,2.22278,0.40514,0.45101,-0.30000,-0.57009,-4.55614,835.84991,828.80694,0.60697,12.86506,0.56229,-0.16979,-9.45277,9.92694,9.75714
39.22900,0.76129,-0.27000,0.03361,0.11769,0.03974,-0.25893,-0.00726,-0.02274,2.22641,-0.00669,0.02039,2.21933,0.39344,0.46260,-0.30000,-0.56229,-4.59043,838.98931,828.80694,0.60980,12.86490,0.56229,-0.16870,-9.45277,9.99832,9.82962
39.22999,0.76129,-0.27000,0.03361,0.11769,0.03974,-0.25893,-0.00726,-0.02274,2.22641,-0.00669,0.02039,2.21933,0.39344,0.46260,-0.30000,-0.56229,-4.59043,838.98931,828.80694,0.60980,12.86474,0.56229,-0.16753,-9.41466,9.99832,9.83078
39.23099,0.76129,-0.27000,0.03361,0.11572,0.04040,-0.24280,-0.00726,-0.02274,2.22641,-0.00669,0.02039,2.21933,0.39344,0.46260,-0.30000,-0.56229,-4.59152,839.08898,828.80694,0.60990,12.86456,0.55710,-0.16637,-9.41466,9.99832,9.83195
39.23199,0.76129,-0.27000,0.03361,0.11572,0.04040,-0.24280,-0.00726,-0.02274,2.22641,-0.00669,0.02039,2.21933,0.39344,0.46260,-0.30000,-0.56229,-4.59152,839.08898,828.80694,0.60990,12.86438,0.55710,-0.16529,-9.46151,9.99832,9.83303
39.23300,0.76129,-0.27000,0.03361,0.11560,0.03454,-0.22852,-0.00726,-0.02274,2.22641,-0.00669,0.02039,2.21933,0.39344,0.46260,-0.30000,-0.56229,-4.59252,839.18060,828.80694,0.61000,12.86418,0.55710,-0.16422,-9.46151,9.99832,9.83410
39.23400,0.76129,-0.27000,0.03361,0.11560,0.03454,-0.22852,-0.00726,-0.02274,2.22641,-0.00669,0.02039,2.21933,0.39344,0.46260,-0.30000,-0.56229,-4.59252,839.18060,828.80694,0.61000,12.86397,0.55710,-0.16314,-9.45722,9.99832,9.83518
39.23500,0.76129,-0.27000,0.03361,0.12172,0.03023,-0.21669,-0.00726,-0.02274,2.22641,-0.00669,0.02039,2.21933,0.39344,0.46260,-0.30000,-0.56229,-4.59353,839.27288,827.27917,0.61011,12.86376,0.55710,-0.16205,-9.45722,9.99832,9.83626
39.23600,0.76129,-0.27000,0.03361,0.12172,0.03023,-0.21669,-0.00726,-0.02274,2.22641,-0.00669,0.02039,2.21933,0.39344,0.46260,-0.30000,-0.56229,-4.59353,839.27288,827.27917,0.61011,12.86353,0.55710,-0.16083,-9.38385,9.99832,9.83749
39.23699,0.76129,-0.27000,0.03361,0.12508,0.03103,-0.20228,-0.00726,-0.02274,2.22641,-0.00669,0.02039,2.21933,0.39344,0.46260,-0.30000,-0.56229,-4.59468,839.37780,828.80694,0.61022,12.86330,0.55710,-0.15960,-9.38385,9.99832,9.83872
39.23799,0.76129,-0.27000,0.03361,0.12508,0.03103,-0.20228,-0.00726,-0.02274,2.22641,-0.00669,0.02039,2.21933,0.39344,0.46260,-0.30000,-0.56229,-4.59468,839.37780,827.27917,0.61022,12.86305,0.55710,-0.15837,-9.38741,9.99832,9.83994
39.23899,0.71346,-0.30388,0.04740,0.12117,0.02797,-0.18612,-0.00941,-0.02727,2.22641,-0.00546,0.02116,2.21660,0.38565,0.46927,-0.30000,-0.55710,-4.61676,841.39172,827.27917,0.61205,12.86280,0.55710,-0.15706,-9.38741,10.04306,9.88599
39.24000,0.71346,-0.30388,0.04740,0.12117,0.02797,-0.18612,-0.00941,-0.02727,2.22641,-0.00546,0.02116,2.21660,0.38565,0.46927,-0.30000,-0.55710,-4.61676,841.39172,827.27917,0.61205,12.86254,0.55710,-0.15596,-9.49238,10.04306,9.88709
39.24100,0.71346,-0.30388,0.04740,0.11910,0.01945,-0.17446,-0.00941,-0.02727,2.22641,-0.00546,0.02116,2.21660,0.38565,0.46927,-0.30000,-0.55710,-4.61778,841.48541,827.27917,0.61216,12.86226,0.54910,-0.15486,-9.49238,10.04306,9.88819
39.24200,0.71346,-0.30388,0.04740,0.11910,0.01945,-0.17446,-0.00941,-0.02727,2.22641,-0.00546,0.02116,2.21660,0.38565,0.46927,-0.30000,-0.55710,-4.61778,841.48541,827.27917,0.61216,12.86198,0.54910,-0.15388,-9.55265,10.04306,9.88917
39.24300,0.71346,-0.30388,0.04740,0.12285,0.01569,-0.16652,-0.00941,-0.02727,2.22641,-0.00546,0.02116,2.21660,0.38565,0.46927,-0.30000,-0.55710,-4.61870,841.56890,827.27917,0.61226,12.86169,0.54910,-0.15290,-9.55265,10.04306,9.89015
39.24399,0.71346,-0.30388,0.04740,0.12285,0.01569,-0.16652,-0.00941,-0.02727,2.22641,-0.00546,0.02116,2.21660,0.38565,0.46927,-0.30000,-0.55710,-4.61870,841.56890,827.27917,0.61226,12.86139,0.54910,-0.15188,-9.53470,10.04306,9.89117
39.24499,0.71346,-0.30388,0.04740,0.12425,0.01755,-0.15591,-0.00941,-0.02727,2.22641,-0.00546,0.02116,2.21660,0.38565,0.46927,-0.30000,-0.55710,-4.61965,841.65545,827.27917,0.61237,12.86108,0.54910,-0.15087,-9.53470,10.04306,9.89219
39.24599,0.71346,-0.30388,0.04740,0.12425,0.01755,-0.15591,-0.00941,-0.02727,2.22641,-0.00546,0.02116,2.21660,0.38565,0.46927,-0.30000,-0.55710,-4.61965,841.65545,825.75701,0.61237,12.86076,0.54910,-0.14992,-9.57094,10.04306,9.89313
