time,target gyro x,target gyro y,target gyro z,gyro x,gyro y,gyro z,target angle x,target angle y,target angle z,angle x,angle y,angle z,target vel z,vel z,target pos z,pos z,desire thrust,desire rotor speed,rotor speed,motor_output,bettery voltage,height,thrust,K_T,acc_z_d,acc_z_com
39.86500,0.62163,0.53497,0.29707,-0.27250,0.12256,0.05091,0.03231,0.01489,1.96611,0.02122,-0.03041,1.90441,0.00914,-0.00662,-0.64980,-0.65590,-4.42737,823.90838,822.72949,0.55397,13.84748,0.65590,-0.24269,6.52211,9.72315,9.48046
39.86600,0.62163,0.53497,0.29707,-0.27250,0.12256,0.05091,0.03231,0.01489,1.96611,0.02122,-0.03041,1.90441,0.00914,-0.00662,-0.64980,-0.65590,-4.42737,823.90838,821.22412,0.55397,13.84730,0.65600,-0.24268,6.52211,9.72315,9.48047
39.86700,-1.57079,0.22705,0.30098,-0.26393,0.12527,0.04749,-0.20636,-0.00197,1.96611,0.01813,-0.02940,1.90507,0.53429,-0.00531,-0.29980,-0.65600,-3.39607,721.59625,821.22412,0.46876,13.84712,0.65600,-0.24717,6.52211,7.51928,7.27210
39.86800,-1.57079,0.22705,0.30098,-0.26393,0.12527,0.04749,-0.20636,-0.00197,1.96611,0.01813,-0.02940,1.90507,0.53429,-0.00531,-0.29980,-0.65600,-3.39607,721.59625,815.99810,0.46876,13.84692,0.65600,-0.25167,6.52211,7.51928,7.26761
39.86899,-1.57079,0.22705,0.30098,-0.25139,0.13354,0.04426,-0.20636,-0.00197,1.96611,0.01813,-0.02940,1.90507,0.53429,-0.00531,-0.29980,-0.65600,-3.39191,721.15393,821.22412,0.46841,13.84673,0.65600,-0.25609,6.52211,7.51928,7.26319
39.86999,-1.57079,0.22705,0.30098,-0.25139,0.13354,0.04426,-0.20636,-0.00197,1.96611,0.01813,-0.02940,1.90507,0.53429,-0.00531,-0.29980,-0.65600,-3.39191,721.15393,821.22412,0.46841,13.84653,0.65600,-0.26050,6.52211,7.51928,7.25877
39.87099,-1.57079,0.22705,0.30098,-0.24840,0.14222,0.04214,-0.20636,-0.00197,1.96611,0.01813,-0.02940,1.90507,0.53429,-0.00531,-0.29980,-0.65600,-3.38783,720.72058,823.48431,0.46806,13.84633,0.65600,-0.26481,6.52211,7.51928,7.25446
39.87200,-1.57079,0.22705,0.30098,-0.24840,0.14222,0.04214,-0.20636,-0.00197,1.96611,0.01813,-0.02940,1.90507,0.53429,-0.00531,-0.29980,-0.65600,-3.38783,720.72058,825.75701,0.46806,13.84612,0.65600,-0.26912,6.52211,7.51928,7.25015
39.87300,-1.57079,0.22705,0.30098,-0.24938,0.14563,0.03832,-0.20636,-0.00197,1.96611,0.01813,-0.02940,1.90507,0.53429,-0.00531,-0.29980,-0.65600,-3.38381,720.29229,825.75701,0.46772,13.84590,0.65600,-0.27343,6.52211,7.51928,7.24584
39.87400,-1.57079,0.22705,0.30098,-0.24938,0.14563,0.03832,-0.20636,-0.00197,1.96611,0.01813,-0.02940,1.90507,0.53429,-0.00531,-0.29980,-0.65600,-3.38381,720.29229,824.24047,0.46772,13.84568,0.65600,-0.27774,6.52211,7.51928,7.24153
39.87500,-1.57079,0.22705,0.30098,-0.24210,0.14903,0.03198,-0.20636,-0.00197,1.96611,0.01813,-0.02940,1.90507,0.53429,-0.00531,-0.29980,-0.65600,-3.37980,719.86541,823.48431,0.46738,13.84545,0.65600,-0.28202,6.52211,7.51928,7.23726
39.87599,-1.57079,0.22705,0.30098,-0.24210,0.14903,0.03198,-0.20636,-0.00197,1.96611,0.01813,-0.02940,1.90507,0.53429,-0.00531,-0.29980,-0.65600,-3.37980,719.86541,823.48431,0.46738,13.84522,0.65600,-0.28629,6.52211,7.51928,7.23298
39.87699,0.04669,0.50410,0.29488,-0.23351,0.15663,0.02658,-0.10576,0.00504,1.96611,0.01534,-0.02811,1.90557,0.53429,-0.00531,-0.29980,-0.65600,-3.32062,713.53527,823.48431,0.46212,13.84498,0.65600,-0.29064,6.52211,7.40117,7.11053
39.87799,0.04669,0.50410,0.29488,-0.23351,0.15663,0.02658,-0.10576,0.00504,1.96611,0.01534,-0.02811,1.90557,0.53429,-0.00531,-0.29980,-0.65600,-3.32062,713.53527,823.48431,0.46212,13.84474,0.65600,-0.29498,6.52211,7.40117,7.10619
39.87900,0.04669,0.50410,0.29488,-0.23352,0.16243,0.02410,-0.10576,0.00504,1.96611,0.01534,-0.02811,1.90557,0.53429,-0.00531,-0.29980,-0.65600,-3.31660,713.10357,824.24047,0.46178,13.84450,0.65600,-0.29924,6.52211,7.40117,7.10193
39.88000,0.04669,0.50410,0.29488,-0.23352,0.16243,0.02410,-0.10576,0.00504,1.96611,0.01534,-0.02811,1.90557,0.53429,-0.00531,-0.29980,-0.65600,-3.31660,713.10357,824.24047,0.46178,13.84425,0.65600,-0.30350,6.52211,7.40117,7.09767
39.88100,0.04669,0.50410,0.29488,-0.23187,0.16361,0.02415,-0.10576,0.00504,1.96611,0.01534,-0.02811,1.90557,0.53429,-0.00531,-0.29980,-0.65600,-3.31257,712.67016,821.97613,0.46143,13.84400,0.65600,-0.30787,6.52211,7.40117,7.09330
39.88199,0.04669,0.50410,0.29488,-0.23187,0.16361,0.02415,-0.10576,0.00504,1.96611,0.01534,-0.02811,1.90557,0.53429,-0.00531,-0.29980,-0.65600,-3.31257,712.67016,819.72406,0.46143,13.84374,0.65600,-0.31224,6.52211,7.40117,7.08893
39.88299,0.04669,0.50410,0.29488,-0.21892,0.16758,0.02956,-0.10576,0.00504,1.96611,0.01534,-0.02811,1.90557,0.53429,-0.00531,-0.29980,-0.65600,-3.30845,712.22723,819.72406,0.46108,13.84349,0.65600,-0.31668,6.52211,7.40117,7.08449
39.88399,0.04669,0.50410,0.29488,-0.21892,0.16758,0.02956,-0.10576,0.00504,1.96611,0.01534,-0.02811,1.90557,0.53429,-0.00531,-0.29980,-0.65600,-3.30845,712.22723,815.25689,0.46108,13.84323,0.65600,-0.32113,6.52211,7.40117,7.08004
39.88499,0.04669,0.50410,0.29488,-0.20710,0.17705,0.04508,-0.10576,0.00504,1.96611,0.01534,-0.02811,1.90557,0.53429,-0.00531,-0.29980,-0.65600,-3.30435,711.78540,815.25689,0.46073,13.84296,0.65600,-0.32547,6.52211,7.40117,7.07570
39.88600,0.04669,0.50410,0.29488,-0.20710,0.17705,0.04508,-0.10576,0.00504,1.96611,0.01534,-0.02811,1.90557,0.53429,-0.00531,-0.29980,-0.65600,-3.30435,711.78540,814.51715,0.46073,13.84270,0.65600,-0.32981,6.52211,7.40117,7.07136
39.88700,0.77267,0.54625,0.29364,-0.20744,0.18402,0.07007,-0.06036,0.00816,1.96611,0.01277,-0.02653,1.90597,0.53429,-0.00531,-0.29980,-0.65600,-3.28734,709.95104,802.14288,0.45922,13.84243,0.65600,-0.33411,6.52211,7.37340,7.03928
39.88800,0.77267,0.54625,0.29364,-0.20744,0.18402,0.07007,-0.06036,0.00816,1.96611,0.01277,-0.02653,1.90597,0.53429,-0.00531,-0.29980,-0.65600,-3.28734,709.95104,802.14288,0.45922,13.84216,0.65600,-0.33842,6.52211,7.37340,7.03497
39.88899,0.77267,0.54625,0.29364,-0.20958,0.18518,0.09983,-0.06036,0.00816,1.96611,0.01277,-0.02653,1.90597,0.53429,-0.00531,-0.29980,-0.65600,-3.28330,709.51513,801.42669,0.45887,13.84189,0.65600,-0.34276,6.52211,7.37340,7.03064
39.88999,0.77267,0.54625,0.29364,-0.20958,0.18518,0.09983,-0.06036,0.00816,1.96611,0.01277,-0.02653,1.90597,0.53429,-0.00531,-0.29980,-0.65600,-3.28330,709.51513,800.71173,0.45887,13.84162,0.65600,-0.34709,6.52211,7.37340,7.02630
39.89099,0.77267,0.54625,0.29364,-0.20572,0.18727,0.13398,-0.06036,0.00816,1.96611,0.01277,-0.02653,1.90597,0.53429,-0.00531,-0.29980,-0.65600,-3.27927,709.07904,800.71173,0.45853,13.84135,0.65600,-0.35139,6.52211,7.37340,7.02200
39.89199,0.77267,0.54625,0.29364,-0.20572,0.18727,0.13398,-0.06036,0.00816,1.96611,0.01277,-0.02653,1.90597,0.53429,-0.00531,-0.29980,-0.65600,-3.27927,709.07904,800.71173,0.45853,13.84107,0.65600,-0.35570,6.52211,7.37340,7.01769
39.89300,0.77267,0.54625,0.29364,-0.20616,0.19248,0.17621,-0.06036,0.00816,1.96611,0.01277,-0.02653,1.90597,0.53429,-0.00531,-0.29980,-0.65600,-3.27533,708.65332,800.71173,0.45819,13.84080,0.65600,-0.35982,6.52211,7.37340,7.01357
39.89400,0.77267,0.54625,0.29364,-0.20616,0.19248,0.17621,-0.06036,0.00816,1.96611,0.01277,-0.02653,1.90597,0.53429,-0.00531,-0.29980,-0.65600,-3.27533,708.65332,795.74279,0.45819,13.84052,0.65600,-0.36395,6.52211,7.37340,7.00944
39.89500,0.77267,0.54625,0.29364,-0.21412,0.19423,0.22694,-0.06036,0.00816,1.96611,0.01277,-0.02653,1.90597,0.53429,-0.00531,-0.29980,-0.65600,-3.27151,708.24011,793.63208,0.45787,13.84024,0.65600,-0.36800,6.52211,7.37340,7.00539
39.89599,0.77267,0.54625,0.29364,-0.21412,0.19423,0.22694,-0.06036,0.00816,1.96611,0.01277,-0.02653,1.90597,0.53429,-0.00531,-0.29980,-0.65600,-3.27151,708.24011,793.63208,0.45787,13.83997,0.65600,-0.37205,6.52211,7.37340,7.00134
39.89699,0.73038,0.53238,0.28589,-0.21455,0.19172,0.28363,-0.04015,0.00954,1.96611,0.01029,-0.02473,1.90782,0.53429,-0.00531,-0.29980,-0.65600,-3.26423,707.45153,792.93103,0.45723,13.83969,0.65600,-0.37619,6.52211,7.36599,6.98980
39.89799,0.73038,0.53238,0.28589,-0.21455,0.19172,0.28363,-0.04015,0.00954,1.96611,0.01029,-0.02473,1.90782,0.53429,-0.00531,-0.29980,-0.65600,-3.26423,707.45153,792.93103,0.45723,13.83941,0.65600,-0.38033,6.52211,7.36599,6.98566
39.89899,0.73038,0.53238,0.28589,-0.20378,0.19264,0.34712,-0.04015,0.00954,1.96611,0.01029,-0.02473,1.90782,0.53429,-0.00531,-0.29980,-0.65600,-3.26038,707.03399,792.93103,0.45690,13.83914,0.65600,-0.38444,6.52211,7.36599,6.98155
39.90000,0.73038,0.53238,0.28589,-0.20378,0.19264,0.34712,-0.04015,0.00954,1.96611,0.01029,-0.02473,1.90782,0.53429,-0.00531,-0.29980,-0.65600,-3.26038,707.03399,791.53253,0.45690,13.83886,0.65600,-0.38855,6.52211,7.36599,6.97744
39.90100,0.73038,0.53238,0.28589,-0.20047,0.19796,0.41973,-0.04015,0.00954,1.96611,0.01029,-0.02473,1.90782,0.53429,-0.00531,-0.29980,-0.65600,-3.25664,706.62860,789.44403,0.45658,13.83858,0.65600,-0.39244,6.52211,7.36599,6.97355
39.90200,0.73038,0.53238,0.28589,-0.20047,0.19796,0.41973,-0.04015,0.00954,1.96611,0.01029,-0.02473,1.90782,0.53429,-0.00531,-0.29980,-0.65600,-3.25664,706.62860,788.75036,0.45658,13.83831,0.65600,-0.39634,6.52211,7.36599,6.96965
39.90299,0.73038,0.53238,0.28589,-0.21275,0.19915,0.49852,-0.04015,0.00954,1.96611,0.01029,-0.02473,1.90782,0.53429,-0.00531,-0.29980,-0.65600,-3.25307,706.24127,786.67651,0.45627,13.83803,0.65600,-0.40008,6.52211,7.36599,6.96590
39.90399,0.73038,0.53238,0.28589,-0.21275,0.19915,0.49852,-0.04015,0.00954,1.96611,0.01029,-0.02473,1.90782,0.53429,-0.00531,-0.29980,-0.65600,-3.25307,706.24127,786.67651,0.45627,13.83776,0.65600,-0.40383,6.52211,7.36599,6.96216
39.90499,0.73038,0.53238,0.28589,-0.22397,0.19429,0.57814,-0.04015,0.00954,1.96611,0.01029,-0.02473,1.90782,0.53429,-0.00531,-0.29980,-0.65600,-3.24957,705.86114,786.67651,0.45597,13.83749,0.65600,-0.40758,6.52211,7.36599,6.95841
39.90599,0.73038,0.53238,0.28589,-0.22397,0.19429,0.57814,-0.04015,0.00954,1.96611,0.01029,-0.02473,1.90782,0.53429,-0.00531,-0.29980,-0.65600,-3.24957,705.86114,786.67651,0.45597,13.83722,0.65600,-0.41133,6.52211,7.36599,6.95466
39.90700,0.59011,0.51105,0.26131,-0.22407,0.19195,0.65839,-0.03119,0.01015,1.96611,0.00763,-0.02293,1.91305,0.53429,-0.00531,-0.29980,-0.65600,-3.24503,705.36761,786.67651,0.45558,13.83696,0.65600,-0.41499,6.52211,7.36368,6.94868
39.90800,0.59011,0.51105,0.26131,-0.22407,0.19195,0.65839,-0.03119,0.01015,1.96611,0.00763,-0.02293,1.91305,0.53429,-0.00531,-0.29980,-0.65600,-3.24503,705.36761,786.67651,0.45558,13.83670,0.65600,-0.41866,6.52211,7.36368,6.94502
39.90900,0.59011,0.51105,0.26131,-0.22552,0.19517,0.74205,-0.03119,0.01015,1.96611,0.00763,-0.02293,1.91305,0.53429,-0.00531,-0.29980,-0.65600,-3.24172,705.00756,771.13220,0.45530,13.83644,0.65600,-0.42209,6.52211,7.36368,6.94159
39.90999,0.59011,0.51105,0.26131,-0.22552,0.19517,0.74205,-0.03119,0.01015,1.96611,0.00763,-0.02293,1.91305,0.53429,-0.00531,-0.29980,-0.65600,-3.24172,705.00756,771.13220,0.45530,13.83618,0.65600,-0.42551,6.52211,7.36368,6.93816
39.91099,0.59011,0.51105,0.26131,-0.23452,0.19626,0.82763,-0.03119,0.01015,1.96611,0.00763,-0.02293,1.91305,0.53429,-0.00531,-0.29980,-0.65600,-3.23858,704.66644,767.83392,0.45503,13.83593,0.65600,-0.42880,6.52211,7.36368,6.93487
39.91199,0.59011,0.51105,0.26131,-0.23452,0.19626,0.82763,-0.03119,0.01015,1.96611,0.00763,-0.02293,1.91305,0.53429,-0.00531,-0.29980,-0.65600,-3.23858,704.66644,765.86853,0.45503,13.83568,0.65600,-0.43209,6.52211,7.36368,6.93158
39.91299,0.59011,0.51105,0.26131,-0.23640,0.19222,0.91175,-0.03119,0.01015,1.96611,0.00763,-0.02293,1.91305,0.53429,-0.00531,-0.29980,-0.65600,-3.23550,704.33099,765.86853,0.45477,13.83544,0.65600,-0.43540,6.52211,7.36368,6.92827
39.91400,0.59011,0.51105,0.26131,-0.23640,0.19222,0.91175,-0.03119,0.01015,1.96611,0.00763,-0.02293,1.91305,0.53429,-0.00531,-0.29980,-0.65600,-3.23550,704.33099,765.86853,0.45477,13.83520,0.65600,-0.43872,6.52211,7.36368,6.92496
39.91500,0.59011,0.51105,0.26131,-0.22561,0.19045,0.99606,-0.03119,0.01015,1.96611,0.00763,-0.02293,1.91305,0.53429,-0.00531,-0.29980,-0.65600,-3.23244,703.99804,765.21557,0.45450,13.83497,0.65600,-0.44195,6.52211,7.36368,6.92172
39.91600,0.59011,0.51105,0.26131,-0.22561,0.19045,0.99606,-0.03119,0.01015,1.96611,0.00763,-0.02293,1.91305,0.53429,-0.00531,-0.29980,-0.65600,-3.23244,703.99804,765.21557,0.45450,13.83474,0.65600,-0.44519,6.52211,7.36368,6.91849
39.91699,0.49233,0.49257,0.21463,-0.22131,0.19365,1.08371,-0.02721,0.01042,1.96611,0.00465,-0.02119,1.92271,0.53429,-0.00531,-0.29980,-0.65600,-3.22916,703.64062,758.74719,0.45422,13.83452,0.65600,-0.44814,6.52211,7.36285,6.91470
39.91799,0.49233,0.49257,0.21463,-0.22131,0.19365,1.08371,-0.02721,0.01042,1.96611,0.00465,-0.02119,1.92271,0.53429,-0.00531,-0.29980,-0.65600,-3.22916,703.64062,758.74719,0.45422,13.83430,0.65600,-0.45110,6.52211,7.36285,6.91174
39.91899,0.49233,0.49257,0.21463,-0.23461,0.19333,1.17110,-0.02721,0.01042,1.96611,0.00465,-0.02119,1.92271,0.53429,-0.00531,-0.29980,-0.65600,-3.22651,703.35137,756.19030,0.45399,13.83410,0.65600,-0.45383,6.52211,7.36285,6.90901
39.91999,0.49233,0.49257,0.21463,-0.23461,0.19333,1.17110,-0.02721,0.01042,1.96611,0.00465,-0.02119,1.92271,0.53429,-0.00531,-0.29980,-0.65600,-3.22651,703.35137,758.10632,0.45399,13.83389,0.65600,-0.45655,6.52211,7.36285,6.90629
39.92100,0.49233,0.49257,0.21463,-0.24750,0.18536,1.25152,-0.02721,0.01042,1.96611,0.00465,-0.02119,1.92271,0.53429,-0.00531,-0.29980,-0.65600,-3.22397,703.07537,758.10632,0.45378,13.83370,0.65600,-0.45925,6.52211,7.36285,6.90359
39.92200,0.49233,0.49257,0.21463,-0.24750,0.18536,1.25152,-0.02721,0.01042,1.96611,0.00465,-0.02119,1.92271,0.53429,-0.00531,-0.29980,-0.65600,-3.22397,703.07537,758.10632,0.45378,13.83351,0.65600,-0.46195,6.52211,7.36285,6.90090
39.92300,0.49233,0.49257,0.21463,-0.24436,0.17881,1.32524,-0.02721,0.01042,1.96611,0.00465,-0.02119,1.92271,0.53429,-0.00531,-0.29980,-0.65600,-3.22149,702.80419,758.10632,0.45356,13.83333,0.65600,-0.46457,6.52211,7.36285,6.89827
39.92399,0.49233,0.49257,0.21463,-0.24436,0.17881,1.32524,-0.02721,0.01042,1.96611,0.00465,-0.02119,1.92271,0.53429,-0.00531,-0.29980,-0.65600,-3.22149,702.80419,749.24700,0.45356,13.83315,0.65600,-0.46720,6.52211,7.36285,6.89564
39.92499,0.49233,0.49257,0.21463,-0.23815,0.18042,1.39820,-0.02721,0.01042,1.96611,0.00465,-0.02119,1.92271,0.53429,-0.00531,-0.29980,-0.65600,-3.21917,702.55151,748.62207,0.45336,13.83299,0.65600,-0.46953,6.52211,7.36285,6.89331
39.92599,0.49233,0.49257,0.21463,-0.23815,0.18042,1.39820,-0.02721,0.01042,1.96611,0.00465,-0.02119,1.92271,0.53429,-0.00531,-0.29980,-0.65600,-3.21917,702.55151,748.62207,0.45336,13.83283,0.65640,-0.47186,6.52211,7.36285,6.89098
39.92699,0.66252,0.76734,0.14620,-0.24378,0.18273,1.47160,-0.01395,0.02570,1.96611,0.00149,-0.01952,1.93663,0.53489,-0.00393,-0.29980,-0.65640,-3.21881,702.51165,747.99822,0.45334,13.83269,0.65640,-0.47385,6.52211,7.36637,6.89252
39.92800,0.66252,0.76734,0.14620,-0.24378,0.18273,1.47160,-0.01395,0.02570,1.96611,0.00149,-0.01952,1.93663,0.53489,-0.00393,-0.29980,-0.65640,-3.21881,702.51165,747.99822,0.45334,13.83255,0.65640,-0.47583,6.52211,7.36637,6.89054
39.92900,0.66252,0.76734,0.14620,-0.24997,0.17761,1.54111,-0.01395,0.02570,1.96611,0.00149,-0.01952,1.93663,0.53489,-0.00393,-0.29980,-0.65640,-3.21701,702.31616,745.51318,0.45318,13.83243,0.65640,-0.47768,6.52211,7.36637,6.88869
39.93000,0.66252,0.76734,0.14620,-0.24997,0.17761,1.54111,-0.01395,0.02570,1.96611,0.00149,-0.01952,1.93663,0.53489,-0.00393,-0.29980,-0.65640,-3.21701,702.31616,741.81640,0.45318,13.83231,0.65640,-0.47953,6.52211,7.36637,6.88683
39.93099,0.66252,0.76734,0.14620,-0.24230,0.17031,1.60610,-0.01395,0.02570,1.96611,0.00149,-0.01952,1.93663,0.53489,-0.00393,-0.29980,-0.65640,-3.21531,702.13031,741.81640,0.45304,13.83221,0.65640,-0.48133,6.52211,7.36637,6.88504
39.93199,0.66252,0.76734,0.14620,-0.24230,0.17031,1.60610,-0.01395,0.02570,1.96611,0.00149,-0.01952,1.93663,0.53489,-0.00393,-0.29980,-0.65640,-3.21531,702.13031,741.81640,0.45304,13.83211,0.65640,-0.48312,6.52211,7.36637,6.88325
39.93299,0.66252,0.76734,0.14620,-0.23321,0.16862,1.67088,-0.01395,0.02570,1.96611,0.00149,-0.01952,1.93663,0.53489,-0.00393,-0.29980,-0.65640,-3.21373,701.95764,741.81640,0.45290,13.83203,0.65640,-0.48471,6.52211,7.36637,6.88165
39.93399,0.66252,0.76734,0.14620,-0.23321,0.16862,1.67088,-0.01395,0.02570,1.96611,0.00149,-0.01952,1.93663,0.53489,-0.00393,-0.29980,-0.65640,-3.21373,701.95764,741.81640,0.45290,13.83195,0.65640,-0.48631,6.52211,7.36637,6.88006
39.93500,0.66252,0.76734,0.14620,-0.24079,0.16785,1.73555,-0.01395,0.02570,1.96611,0.00149,-0.01952,1.93663,0.53489,-0.00393,-0.29980,-0.65640,-3.21235,701.80700,738.15612,0.45278,13.83188,0.65640,-0.48767,6.52211,7.36637,6.87870
39.93600,0.66252,0.76734,0.14620,-0.24079,0.16785,1.73555,-0.01395,0.02570,1.96611,0.00149,-0.01952,1.93663,0.53489,-0.00393,-0.29980,-0.65640,-3.21235,701.80700,738.15612,0.45278,13.83183,0.65640,-0.48903,6.52211,7.36637,6.87734
39.93700,0.45712,0.50791,0.06187,-0.25446,0.15983,1.79416,-0.01788,0.01954,1.96611,-0.00171,-0.01793,1.95391,0.53489,-0.00393,-0.29980,-0.65640,-3.21083,701.64050,737.54962,0.45264,13.83178,0.65640,-0.49036,6.52211,7.36581,6.87544
39.93799,0.45712,0.50791,0.06187,-0.25446,0.15983,1.79416,-0.01788,0.01954,1.96611,-0.00171,-0.01793,1.95391,0.53489,-0.00393,-0.29980,-0.65640,-3.21083,701.64050,737.54962,0.45264,13.83175,0.65640,-0.49170,6.52211,7.36581,6.87410
39.93899,0.45712,0.50791,0.06187,-0.25211,0.14926,1.84450,-0.01788,0.01954,1.96611,-0.00171,-0.01793,1.95391,0.53489,-0.00393,-0.29980,-0.65640,-3.20955,701.50140,737.54962,0.45253,13.83173,0.65640,-0.49309,6.52211,7.36581,6.87271
39.93999,0.45712,0.50791,0.06187,-0.25211,0.14926,1.84450,-0.01788,0.01954,1.96611,-0.00171,-0.01793,1.95391,0.53489,-0.00393,-0.29980,-0.65640,-3.20955,701.50140,737.54962,0.45253,13.83172,0.65640,-0.49448,6.52211,7.36581,6.87132
39.94100,0.45712,0.50791,0.06187,-0.23900,0.14663,1.89177,-0.01788,0.01954,1.96611,-0.00171,-0.01793,1.95391,0.53489,-0.00393,-0.29980,-0.65640,-3.20833,701.36755,735.73596,0.45242,13.83172,0.65640,-0.49571,6.52211,7.36581,6.87009
39.94200,0.45712,0.50791,0.06187,-0.23900,0.14663,1.89177,-0.01788,0.01954,1.96611,-0.00171,-0.01793,1.95391,0.53489,-0.00393,-0.29980,-0.65640,-3.20833,701.36755,735.73596,0.45242,13.83173,0.65640,-0.49694,6.52211,7.36581,6.86886
39.94300,0.45712,0.50791,0.06187,-0.23794,0.14961,1.93938,-0.01788,0.01954,1.96611,-0.00171,-0.01793,1.95391,0.53489,-0.00393,-0.29980,-0.65640,-3.20732,701.25744,735.73596,0.45232,13.83175,0.65640,-0.49787,6.52211,7.36581,6.86793
39.94400,0.45712,0.50791,0.06187,-0.23794,0.14961,1.93938,-0.01788,0.01954,1.96611,-0.00171,-0.01793,1.95391,0.53489,-0.00393,-0.29980,-0.65640,-3.20732,701.25744,735.73596,0.45232,13.83179,0.65640,-0.49879,6.52211,7.36581,6.86701
39.94499,0.45712,0.50791,0.06187,-0.24872,0.14653,1.98362,-0.01788,0.01954,1.96611,-0.00171,-0.01793,1.95391,0.53489,-0.00393,-0.29980,-0.65640,-3.20651,701.16827,735.73596,0.45225,13.83184,0.65640,-0.49962,6.52211,7.36581,6.86619
39.94599,0.45712,0.50791,0.06187,-0.24872,0.14653,1.98362,-0.01788,0.01954,1.96611,-0.00171,-0.01793,1.95391,0.53489,-0.00393,-0.29980,-0.65640,-3.20651,701.16827,735.73596,0.45225,13.83190,0.65619,-0.50044,6.52211,7.36581,6.86537
39.94699,0.27836,0.60313,-0.03495,-0.24940,0.13659,2.02144,-0.02725,0.02458,1.96611,-0.00501,-0.01650,1.97371,0.53459,0.00595,-0.29980,-0.65619,-3.22827,703.54388,737.54962,0.45422,13.83198,0.65619,-0.50127,6.52211,7.41407,6.91279
39.94800,0.27836,0.60313,-0.03495,-0.24940,0.13659,2.02144,-0.02725,0.02458,1.96611,-0.00501,-0.01650,1.97371,0.53459,0.00595,-0.29980,-0.65619,-3.22827,703.54388,737.54962,0.45422,13.83207,0.65619,-0.50211,6.52211,7.41407,6.91195
39.94900,0.27836,0.60313,-0.03495,-0.23632,0.13104,2.05660,-0.02725,0.02458,1.96611,-0.00501,-0.01650,1.97371,0.53459,0.00595,-0.29980,-0.65619,-3.22748,703.45733,737.54962,0.45414,13.83217,0.65619,-0.50297,6.52211,7.41407,6.91109
39.95000,0.27836,0.60313,-0.03495,-0.23632,0.13104,2.05660,-0.02725,0.02458,1.96611,-0.00501,-0.01650,1.97371,0.53459,0.00595,-0.29980,-0.65619,-3.22748,703.45733,737.54962,0.45414,13.83229,0.65619,-0.50384,6.52211,7.41407,6.91023
39.95100,0.27836,0.60313,-0.03495,-0.23037,0.13321,2.09260,-0.02725,0.02458,1.96611,-0.00501,-0.01650,1.97371,0.53459,0.00595,-0.29980,-0.65619,-3.22675,703.37811,738.76373,0.45407,13.83242,0.65619,-0.50453,6.52211,7.41407,6.90954
39.95199,0.27836,0.60313,-0.03495,-0.23037,0.13321,2.09260,-0.02725,0.02458,1.96611,-0.00501,-0.01650,1.97371,0.53459,0.00595,-0.29980,-0.65619,-3.22675,703.37811,735.73596,0.45407,13.83257,0.65619,-0.50523,6.52211,7.41407,6.90884
39.95299,0.27836,0.60313,-0.03495,-0.23882,0.13297,2.12542,-0.02725,0.02458,1.96611,-0.00501,-0.01650,1.97371,0.53459,0.00595,-0.29980,-0.65619,-3.22615,703.31250,738.76373,0.45401,13.83273,0.65619,-0.50582,6.52211,7.41407,6.90825
39.95399,0.27836,0.60313,-0.03495,-0.23882,0.13297,2.12542,-0.02725,0.02458,1.96611,-0.00501,-0.01650,1.97371,0.53459,0.00595,-0.29980,-0.65619,-3.22615,703.31250,738.76373,0.45401,13.83291,0.65619,-0.50641,6.52211,7.41407,6.90765
39.95500,0.27836,0.60313,-0.03495,-0.24186,0.12534,2.15007,-0.02725,0.02458,1.96611,-0.00501,-0.01650,1.97371,0.53459,0.00595,-0.29980,-0.65619,-3.22555,703.24707,738.76373,0.45394,13.83310,0.65619,-0.50711,6.52211,7.41407,6.90696
39.95600,0.27836,0.60313,-0.03495,-0.24186,0.12534,2.15007,-0.02725,0.02458,1.96611,-0.00501,-0.01650,1.97371,0.53459,0.00595,-0.29980,-0.65619,-3.22555,703.24707,738.76373,0.45394,13.83331,0.65610,-0.50780,6.52211,7.41407,6.90627
39.95700,0.36092,0.83886,-0.13832,-0.22818,0.12025,2.16936,-0.02769,0.03939,1.96611,-0.00819,-0.01517,1.99515,0.53445,0.01198,-0.29980,-0.65610,-3.23959,704.77636,732.73297,0.45520,13.83354,0.65610,-0.50848,6.52211,7.44552,6.93703
39.95800,0.36092,0.83886,-0.13832,-0.22818,0.12025,2.16936,-0.02769,0.03939,1.96611,-0.00819,-0.01517,1.99515,0.53445,0.01198,-0.29980,-0.65610,-3.23959,704.77636,738.76373,0.45520,13.83378,0.65610,-0.50916,6.52211,7.44552,6.93635
39.95899,0.36092,0.83886,-0.13832,-0.21559,0.12542,2.18906,-0.02769,0.03939,1.96611,-0.00819,-0.01517,1.99515,0.53445,0.01198,-0.29980,-0.65610,-3.23905,704.71740,738.76373,0.45513,13.83404,0.65610,-0.50964,6.52211,7.44552,6.93587
39.95999,0.36092,0.83886,-0.13832,-0.21559,0.12542,2.18906,-0.02769,0.03939,1.96611,-0.00819,-0.01517,1.99515,0.53445,0.01198,-0.29980,-0.65610,-3.23905,704.71740,738.76373,0.45513,13.83432,0.65610,-0.51012,6.52211,7.44552,6.93539
39.96099,0.36092,0.83886,-0.13832,-0.21979,0.13225,2.20791,-0.02769,0.03939,1.96611,-0.00819,-0.01517,1.99515,0.53445,0.01198,-0.29980,-0.65610,-3.23873,704.68206,738.76373,0.45509,13.83461,0.65610,-0.51033,6.52211,7.44552,6.93518
39.96200,0.36092,0.83886,-0.13832,-0.21979,0.13225,2.20791,-0.02769,0.03939,1.96611,-0.00819,-0.01517,1.99515,0.53445,0.01198,-0.29980,-0.65610,-3.23873,704.68206,738.76373,0.45509,13.83491,0.65610,-0.51055,6.52211,7.44552,6.93496
39.96300,0.36092,0.83886,-0.13832,-0.22689,0.12984,2.21987,-0.02769,0.03939,1.96611,-0.00819,-0.01517,1.99515,0.53445,0.01198,-0.29980,-0.65610,-3.23854,704.66156,732.73297,0.45505,13.83524,0.65610,-0.51074,6.52211,7.44552,6.93477
39.96400,0.36092,0.83886,-0.13832,-0.22689,0.12984,2.21987,-0.02769,0.03939,1.96611,-0.00819,-0.01517,1.99515,0.53445,0.01198,-0.29980,-0.65610,-3.23854,704.66156,730.34814,0.45505,13.83559,0.65610,-0.51092,6.52211,7.44552,6.93459
39.96500,0.36092,0.83886,-0.13832,-0.21817,0.12309,2.22474,-0.02769,0.03939,1.96611,-0.00819,-0.01517,1.99515,0.53445,0.01198,-0.29980,-0.65610,-3.23831,704.63714,730.34814,0.45500,13.83595,0.65610,-0.51122,6.52211,7.44552,6.93429
39.96599,0.36092,0.83886,-0.13832,-0.21817,0.12309,2.22474,-0.02769,0.03939,1.96611,-0.00819,-0.01517,1.99515,0.53445,0.01198,-0.29980,-0.65610,-3.23831,704.63714,730.34814,0.45500,13.83633,0.65520,-0.51151,6.52211,7.44552,6.93400
39.96699,0.27671,0.53985,-0.25057,-0.20296,0.12337,2.22861,-0.03450,0.03140,1.96611,-0.01118,-0.01374,2.01743,0.53309,0.04028,-0.29980,-0.65520,-3.30033,711.35198,730.34814,0.46058,13.83672,0.65520,-0.51149,6.52212,7.57859,7.06709
39.96799,0.27671,0.53985,-0.25057,-0.20296,0.12337,2.22861,-0.03450,0.03140,1.96611,-0.01118,-0.01374,2.01743,0.53309,0.04028,-0.29980,-0.65520,-3.30033,711.35198,728.56976,0.46058,13.83713,0.65520,-0.51147,6.52212,7.57859,7.06711
39.96900,0.27671,0.53985,-0.25057,-0.20199,0.12862,2.23345,-0.03450,0.03140,1.96611,-0.01118,-0.01374,2.01743,0.53309,0.04028,-0.29980,-0.65520,-3.30042,711.36114,727.97882,0.46056,13.83757,0.65520,-0.51131,6.52212,7.57859,7.06728
39.97000,0.27671,0.53985,-0.25057,-0.20199,0.12862,2.23345,-0.03450,0.03140,1.96611,-0.01118,-0.01374,2.01743,0.53309,0.04028,-0.29980,-0.65520,-3.30042,711.36114,727.97882,0.46056,13.83801,0.65520,-0.51115,6.52212,7.57859,7.06744
39.97100,0.27671,0.53985,-0.25057,-0.21105,0.12800,2.23408,-0.03450,0.03140,1.96611,-0.01118,-0.01374,2.01743,0.53309,0.04028,-0.29980,-0.65520,-3.30056,711.37664,726.21185,0.46054,13.83848,0.65520,-0.51100,6.52212,7.57859,7.06758
39.97200,0.27671,0.53985,-0.25057,-0.21105,0.12800,2.23408,-0.03450,0.03140,1.96611,-0.01118,-0.01374,2.01743,0.53309,0.04028,-0.29980,-0.65520,-3.30056,711.37664,726.21185,0.46054,13.83897,0.65520,-0.51086,6.52212,7.57859,7.06773
39.97299,0.27671,0.53985,-0.25057,-0.20882,0.12219,2.22754,-0.03450,0.03140,1.96611,-0.01118,-0.01374,2.01743,0.53309,0.04028,-0.29980,-0.65520,-3.30062,711.38293,722.70361,0.46051,13.83947,0.65520,-0.51088,6.52212,7.57859,7.06771
39.97399,0.27671,0.53985,-0.25057,-0.20882,0.12219,2.22754,-0.03450,0.03140,1.96611,-0.01118,-0.01374,2.01743,0.53309,0.04028,-0.29980,-0.65520,-3.30062,711.38293,722.70361,0.46051,13.83999,0.65520,-0.51089,6.52212,7.57859,7.06769
39.97499,0.27671,0.53985,-0.25057,-0.19488,0.12270,2.21839,-0.03450,0.03140,1.96611,-0.01118,-0.01374,2.01743,0.53309,0.04028,-0.29980,-0.65520,-3.30060,711.38092,722.70361,0.46047,13.84053,0.65520,-0.51092,6.52212,7.57859,7.06767
39.97600,0.27671,0.53985,-0.25057,-0.19488,0.12270,2.21839,-0.03450,0.03140,1.96611,-0.01118,-0.01374,2.01743,0.53309,0.04028,-0.29980,-0.65520,-3.30060,711.38092,722.70361,0.46047,13.84109,0.65520,-0.51094,6.52212,7.57859,7.06765
39.97700,0.45342,0.45273,-0.36172,-0.19079,0.13126,2.21055,-0.02961,0.02612,1.96611,-0.01393,-0.01223,2.03971,0.53309,0.04028,-0.29980,-0.65520,-3.29958,711.27117,719.22906,0.46034,13.84167,0.65520,-0.51076,6.52212,7.57625,7.06549
39.97800,0.45342,0.45273,-0.36172,-0.19079,0.13126,2.21055,-0.02961,0.02612,1.96611,-0.01393,-0.01223,2.03971,0.53309,0.04028,-0.29980,-0.65520,-3.29958,711.27117,720.38354,0.46034,13.84226,0.65520,-0.51058,6.52212,7.57625,7.06567
39.97900,0.45342,0.45273,-0.36172,-0.20181,0.13590,2.20033,-0.02961,0.02612,1.96611,-0.01393,-0.01223,2.03971,0.53309,0.04028,-0.29980,-0.65520,-3.29981,711.29541,720.38354,0.46032,13.84287,0.65520,-0.51028,6.52212,7.57625,7.06597
39.97999,0.45342,0.45273,-0.36172,-0.20181,0.13590,2.20033,-0.02961,0.02612,1.96611,-0.01393,-0.01223,2.03971,0.53309,0.04028,-0.29980,-0.65520,-3.29981,711.29541,718.65319,0.46032,13.84349,0.65520,-0.50998,6.52212,7.57625,7.06627
39.98099,0.45342,0.45273,-0.36172,-0.20662,0.13101,2.18317,-0.02961,0.02612,1.96611,-0.01393,-0.01223,2.03971,0.53309,0.04028,-0.29980,-0.65520,-3.30003,711.31982,718.65319,0.46030,13.84414,0.65520,-0.50979,6.52212,7.57625,7.06646
39.98199,0.45342,0.45273,-0.36172,-0.20662,0.13101,2.18317,-0.02961,0.02612,1.96611,-0.01393,-0.01223,2.03971,0.53309,0.04028,-0.29980,-0.65520,-3.30003,711.31982,718.65319,0.46030,13.84480,0.65520,-0.50961,6.52212,7.57625,7.06664
39.98300,0.45342,0.45273,-0.36172,-0.19415,0.12709,2.16228,-0.02961,0.02612,1.96611,-0.01393,-0.01223,2.03971,0.53309,0.04028,-0.29980,-0.65520,-3.30014,711.33184,716.35906,0.46027,13.84548,0.65520,-0.50955,6.52212,7.57625,7.06669
39.98400,0.45342,0.45273,-0.36172,-0.19415,0.12709,2.16228,-0.02961,0.02612,1.96611,-0.01393,-0.01223,2.03971,0.53309,0.04028,-0.29980,-0.65520,-3.30014,711.33184,718.65319,0.46027,13.84617,0.65520,-0.50950,6.52212,7.57625,7.06675
39.98500,0.45342,0.45273,-0.36172,-0.18349,0.13318,2.14367,-0.02961,0.02612,1.96611,-0.01393,-0.01223,2.03971,0.53309,0.04028,-0.29980,-0.65520,-3.30025,711.34320,719.80584,0.46023,13.84689,0.65520,-0.50933,6.52212,7.57625,7.06692
39.98600,0.45342,0.45273,-0.36172,-0.18349,0.13318,2.14367,-0.02961,0.02612,1.96611,-0.01393,-0.01223,2.03971,0.53309,0.04028,-0.29980,-0.65520,-3.30025,711.34320,719.80584,0.46023,13.84762,0.65390,-0.50916,6.52212,7.57625,7.06709
39.98699,0.44367,0.51364,-0.46748,-0.19121,0.14195,2.12592,-0.02997,0.02696,1.96611,-0.01658,-0.01050,2.06130,0.53114,0.07185,-0.29980,-0.65390,-3.37124,718.95294,719.80584,0.46652,13.84837,0.65390,-0.50849,6.52213,7.72744,7.21894
39.98799,0.44367,0.51364,-0.46748,-0.19121,0.14195,2.12592,-0.02997,0.02696,1.96611,-0.01658,-0.01050,2.06130,0.53114,0.07185,-0.29980,-0.65390,-3.37124,718.95294,719.80584,0.46652,13.84914,0.65390,-0.50782,6.52213,7.72744,7.21961
39.98899,0.44367,0.51364,-0.46748,-0.20263,0.14263,2.10277,-0.02997,0.02696,1.96611,-0.01658,-0.01050,2.06130,0.53114,0.07185,-0.29980,-0.65390,-3.37187,719.01977,719.80584,0.46652,13.84992,0.65390,-0.50715,6.52213,7.72744,7.22028
39.99000,0.44367,0.51364,-0.46748,-0.20263,0.14263,2.10277,-0.02997,0.02696,1.96611,-0.01658,-0.01050,2.06130,0.53114,0.07185,-0.29980,-0.65390,-3.37187,719.01977,719.80584,0.46652,13.85072,0.65390,-0.50647,6.52213,7.72744,7.22096
39.99100,0.44367,0.51364,-0.46748,-0.19727,0.13923,2.07362,-0.02997,0.02696,1.96611,-0.01658,-0.01050,2.06130,0.53114,0.07185,-0.29980,-0.65390,-3.37246,719.08221,719.80584,0.46652,13.85154,0.65390,-0.50589,6.52213,7.72744,7.22154
39.99200,0.44367,0.51364,-0.46748,-0.19727,0.13923,2.07362,-0.02997,0.02696,1.96611,-0.01658,-0.01050,2.06130,0.53114,0.07185,-0.29980,-0.65390,-3.37246,719.08221,719.80584,0.46652,13.85237,0.65390,-0.50531,6.52213,7.72744,7.22212
39.99300,0.44367,0.51364,-0.46748,-0.18416,0.14259,2.04373,-0.02997,0.02696,1.96611,-0.01658,-0.01050,2.06130,0.53114,0.07185,-0.29980,-0.65390,-3.37303,719.14361,720.38354,0.46651,13.85322,0.65390,-0.50466,6.52213,7.72744,7.22277
39.99399,0.44367,0.51364,-0.46748,-0.18416,0.14259,2.04373,-0.02997,0.02696,1.96611,-0.01658,-0.01050,2.06130,0.53114,0.07185,-0.29980,-0.65390,-3.37303,719.14361,720.38354,0.46651,13.85409,0.65390,-0.50401,6.52213,7.72744,7.22343
39.99499,0.44367,0.51364,-0.46748,-0.18588,0.15070,2.01420,-0.02997,0.02696,1.96611,-0.01658,-0.01050,2.06130,0.53114,0.07185,-0.29980,-0.65390,-3.37372,719.21704,722.12219,0.46652,13.85497,0.65390,-0.50319,6.52213,7.72744,7.22425
39.99599,0.44367,0.51364,-0.46748,-0.18588,0.15070,2.01420,-0.02997,0.02696,1.96611,-0.01658,-0.01050,2.06130,0.53114,0.07185,-0.29980,-0.65390,-3.37372,719.21704,720.38354,0.46652,13.85586,0.65390,-0.50236,6.52213,7.72744,7.22507
39.99700,0.49766,0.46902,-0.56882,-0.19969,0.15219,1.98009,-0.02777,0.02445,1.96611,-0.01916,-0.00860,2.08166,0.53114,0.07185,-0.29980,-0.65390,-3.37401,719.24755,720.38354,0.46648,13.85677,0.65390,-0.50159,6.52213,7.72645,7.22486
39.99800,0.49766,0.46902,-0.56882,-0.19969,0.15219,1.98009,-0.02777,0.02445,1.96611,-0.01916,-0.00860,2.08166,0.53114,0.07185,-0.29980,-0.65390,-3.37401,719.24755,722.12219,0.46648,13.85770,0.65390,-0.50081,6.52213,7.72645,7.22564
39.99900,0.49766,0.46902,-0.56882,-0.20293,0.14689,1.94014,-0.02777,0.02445,1.96611,-0.01916,-0.00860,2.08166,0.53114,0.07185,-0.29980,-0.65390,-3.37462,719.31323,720.38354,0.46647,13.85864,0.65390,-0.50027,6.52213,7.72645,7.22618
40.00000,0.49766,0.46902,-0.56882,-0.20293,0.14689,1.94014,-0.02777,0.02445,1.96611,-0.01916,-0.00860,2.08166,0.53114,0.07185,-0.29980,-0.65390,-3.37462,719.31323,722.12219,0.46647,13.85960,0.65390,-0.49972,6.52213,7.72645,7.22672
40.00099,0.49766,0.46902,-0.56882,-0.19265,0.14683,1.90073,-0.02777,0.02445,1.96611,-0.01916,-0.00860,2.08166,0.53114,0.07185,-0.29980,-0.65390,-3.37508,719.36163,722.12219,0.46645,13.86057,0.65390,-0.49929,6.52213,7.72645,7.22715
40.00199,0.49766,0.46902,-0.56882,-0.19265,0.14683,1.90073,-0.02777,0.02445,1.96611,-0.01916,-0.00860,2.08166,0.53114,0.07185,-0.29980,-0.65390,-3.37508,719.36163,732.73297,0.46645,13.86156,0.65390,-0.49886,6.52213,7.72645,7.22758
40.00299,0.49766,0.46902,-0.56882,-0.19034,0.15532,1.86608,-0.02777,0.02445,1.96611,-0.01916,-0.00860,2.08166,0.53114,0.07185,-0.29980,-0.65390,-3.37554,719.41058,732.73297,0.46642,13.86256,0.65390,-0.49831,6.52213,7.72645,7.22813
40.00400,0.49766,0.46902,-0.56882,-0.19034,0.15532,1.86608,-0.02777,0.02445,1.96611,-0.01916,-0.00860,2.08166,0.53114,0.07185,-0.29980,-0.65390,-3.37554,719.41058,732.73297,0.46642,13.86357,0.65390,-0.49776,6.52213,7.72645,7.22869
40.00500,0.49766,0.46902,-0.56882,-0.20369,0.16099,1.83122,-0.02777,0.02445,1.96611,-0.01916,-0.00860,2.08166,0.53114,0.07185,-0.29980,-0.65390,-3.37609,719.46942,732.73297,0.46640,13.86460,0.65390,-0.49713,6.52213,7.72645,7.22932
40.00600,0.49766,0.46902,-0.56882,-0.20369,0.16099,1.83122,-0.02777,0.02445,1.96611,-0.01916,-0.00860,2.08166,0.53114,0.07185,-0.29980,-0.65390,-3.37609,719.46942,733.33160,0.46640,13.86565,0.65190,-0.49650,6.52213,7.72645,7.22995
40.00699,0.52867,0.36603,-0.66252,-0.21275,0.15734,1.79000,-0.02594,0.01817,1.96611,-0.02175,-0.00655,2.10018,0.52814,0.10503,-0.29980,-0.65190,-3.45219,727.53192,735.13342,0.47304,13.86670,0.65190,-0.49567,6.52215,7.88794,7.39227
40.00799,0.52867,0.36603,-0.66252,-0.21275,0.15734,1.79000,-0.02594,0.01817,1.96611,-0.02175,-0.00655,2.10018,0.52814,0.10503,-0.29980,-0.65190,-3.45219,727.53192,735.13342,0.47304,13.86777,0.65190,-0.49484,6.52215,7.88794,7.39310
40.00899,0.52867,0.36603,-0.66252,-0.20527,0.15390,1.74497,-0.02594,0.01817,1.96611,-0.02175,-0.00655,2.10018,0.52814,0.10503,-0.29980,-0.65190,-3.45291,727.60839,735.13342,0.47303,13.86886,0.65190,-0.49411,6.52215,7.88794,7.39382
40.00999,0.52867,0.36603,-0.66252,-0.20527,0.15390,1.74497,-0.02594,0.01817,1.96611,-0.02175,-0.00655,2.10018,0.52814,0.10503,-0.29980,-0.65190,-3.45291,727.60839,736.94409,0.47303,13.86996,0.65190,-0.49339,6.52215,7.88794,7.39455
40.01100,0.52867,0.36603,-0.66252,-0.19862,0.15955,1.70250,-0.02594,0.01817,1.96611,-0.02175,-0.00655,2.10018,0.52814,0.10503,-0.29980,-0.65190,-3.45364,727.68518,736.94409,0.47302,13.87107,0.65190,-0.49255,6.52215,7.88794,7.39539
40.01200,0.52867,0.36603,-0.66252,-0.19862,0.15955,1.70250,-0.02594,0.01817,1.96611,-0.02175,-0.00655,2.10018,0.52814,0.10503,-0.29980,-0.65190,-3.45364,727.68518,736.94409,0.47302,13.87220,0.65190,-0.49172,6.52215,7.88794,7.39622
40.01300,0.52867,0.36603,-0.66252,-0.20924,0.16707,1.66176,-0.02594,0.01817,1.96611,-0.02175,-0.00655,2.10018,0.52814,0.10503,-0.29980,-0.65190,-3.45449,727.77496,736.94409,0.47301,13.87334,0.65190,-0.49073,6.52215,7.88794,7.39721
40.01399,0.52867,0.36603,-0.66252,-0.20924,0.16707,1.66176,-0.02594,0.01817,1.96611,-0.02175,-0.00655,2.10018,0.52814,0.10503,-0.29980,-0.65190,-3.45449,727.77496,733.33160,0.47301,13.87450,0.65190,-0.48974,6.52215,7.88794,7.39820
40.01499,0.52867,0.36603,-0.66252,-0.22314,0.16573,1.61683,-0.02594,0.01817,1.96611,-0.02175,-0.00655,2.10018,0.52814,0.10503,-0.29980,-0.65190,-3.45537,727.86749,732.73297,0.47301,13.87567,0.65190,-0.48885,6.52215,7.88794,7.39909
40.01599,0.52867,0.36603,-0.66252,-0.22314,0.16573,1.61683,-0.02594,0.01817,1.96611,-0.02175,-0.00655,2.10018,0.52814,0.10503,-0.29980,-0.65190,-3.45537,727.86749,729.75439,0.47301,13.87686,0.64939,-0.48795,6.52215,7.88794,7.39999
40.01699,0.63561,0.33660,-0.74448,-0.21963,0.16008,1.56804,-0.02005,0.01380,1.96611,-0.02441,-0.00443,2.11661,0.52439,0.14028,-0.29980,-0.64939,-3.53749,736.46398,729.75439,0.48007,13.87806,0.64939,-0.48692,6.52217,8.06185,7.57493
40.01800,0.63561,0.33660,-0.74448,-0.21963,0.16008,1.56804,-0.02005,0.01380,1.96611,-0.02441,-0.00443,2.11661,0.52439,0.14028,-0.29980,-0.64939,-3.53749,736.46398,729.75439,0.48007,13.87927,0.64939,-0.48589,6.52217,8.06185,7.57596
40.01900,0.63561,0.33660,-0.74448,-0.20768,0.16202,1.52251,-0.02005,0.01380,1.96611,-0.02441,-0.00443,2.11661,0.52439,0.14028,-0.29980,-0.64939,-3.53845,736.56378,729.75439,0.48007,13.88050,0.64939,-0.48487,6.52217,8.06185,7.57698
40.02000,0.63561,0.33660,-0.74448,-0.20768,0.16202,1.52251,-0.02005,0.01380,1.96611,-0.02441,-0.00443,2.11661,0.52439,0.14028,-0.29980,-0.64939,-3.53845,736.56378,729.75439,0.48007,13.88174,0.64939,-0.48384,6.52217,8.06185,7.57800
40.02099,0.63561,0.33660,-0.74448,-0.21094,0.16996,1.48227,-0.02005,0.01380,1.96611,-0.02441,-0.00443,2.11661,0.52439,0.14028,-0.29980,-0.64939,-3.53948,736.67120,729.75439,0.48008,13.88300,0.64939,-0.48266,6.52217,8.06185,7.57919
40.02199,0.63561,0.33660,-0.74448,-0.21094,0.16996,1.48227,-0.02005,0.01380,1.96611,-0.02441,-0.00443,2.11661,0.52439,0.14028,-0.29980,-0.64939,-3.53948,736.67120,729.75439,0.48008,13.88427,0.64939,-0.48147,6.52217,8.06185,7.58038
40.02299,0.63561,0.33660,-0.74448,-0.22671,0.17153,1.44044,-0.02005,0.01380,1.96611,-0.02441,-0.00443,2.11661,0.52439,0.14028,-0.29980,-0.64939,-3.54060,736.78747,729.75439,0.48008,13.88555,0.64939,-0.48026,6.52217,8.06185,7.58158
40.02399,0.63561,0.33660,-0.74448,-0.22671,0.17153,1.44044,-0.02005,0.01380,1.96611,-0.02441,-0.00443,2.11661,0.52439,0.14028,-0.29980,-0.64939,-3.54060,736.78747,732.73297,0.48008,13.88685,0.64939,-0.47906,6.52217,8.06185,7.58279
40.02500,0.63561,0.33660,-0.74448,-0.23055,0.16493,1.39218,-0.02005,0.01380,1.96611,-0.02441,-0.00443,2.11661,0.52439,0.14028,-0.29980,-0.64939,-3.54163,736.89550,732.73297,0.48008,13.88816,0.64939,-0.47804,6.52217,8.06185,7.58381
40.02600,0.63561,0.33660,-0.74448,-0.23055,0.16493,1.39218,-0.02005,0.01380,1.96611,-0.02441,-0.00443,2.11661,0.52439,0.14028,-0.29980,-0.64939,-3.54163,736.89550,735.73596,0.48008,13.88948,0.64939,-0.47702,6.52217,8.06185,7.58482
40.02700,0.55810,0.44064,-0.81169,-0.21883,0.16184,1.34182,-0.02199,0.01663,1.96611,-0.02705,-0.00226,2.13077,0.52439,0.14028,-0.29980,-0.64939,-3.54286,737.02246,735.73596,0.48010,13.89081,0.64939,-0.47610,6.52217,8.06253,7.58642
40.02799,0.55810,0.44064,-0.81169,-0.21883,0.16184,1.34182,-0.02199,0.01663,1.96611,-0.02705,-0.00226,2.13077,0.52439,0.14028,-0.29980,-0.64939,-3.54286,737.02246,735.73596,0.48010,13.89216,0.64939,-0.47518,6.52217,8.06253,7.58734
40.02899,0.55810,0.44064,-0.81169,-0.21472,0.16706,1.29443,-0.02199,0.01663,1.96611,-0.02705,-0.00226,2.13077,0.52439,0.14028,-0.29980,-0.64939,-3.54376,737.11669,740.59228,0.48008,13.89352,0.64939,-0.47416,6.52217,8.06253,7.58836
40.02999,0.55810,0.44064,-0.81169,-0.21472,0.16706,1.29443,-0.02199,0.01663,1.96611,-0.02705,-0.00226,2.13077,0.52439,0.14028,-0.29980,-0.64939,-3.54376,737.11669,740.59228,0.48008,13.89489,0.64939,-0.47314,6.52217,8.06253,7.58938
40.03099,0.55810,0.44064,-0.81169,-0.22759,0.17057,1.24692,-0.02199,0.01663,1.96611,-0.02705,-0.00226,2.13077,0.52439,0.14028,-0.29980,-0.64939,-3.54473,737.21716,740.59228,0.48007,13.89627,0.64939,-0.47209,6.52217,8.06253,7.59043
40.03200,0.55810,0.44064,-0.81169,-0.22759,0.17057,1.24692,-0.02199,0.01663,1.96611,-0.02705,-0.00226,2.13077,0.52439,0.14028,-0.29980,-0.64939,-3.54473,737.21716,740.59228,0.48007,13.89767,0.64939,-0.47105,6.52217,8.06253,7.59148
40.03300,0.55810,0.44064,-0.81169,-0.23693,0.16572,1.19415,-0.02199,0.01663,1.96611,-0.02705,-0.00226,2.13077,0.52439,0.14028,-0.29980,-0.64939,-3.54561,737.30932,740.59228,0.48005,13.89907,0.64939,-0.47020,6.52217,8.06253,7.59233
40.03400,0.55810,0.44064,-0.81169,-0.23693,0.16572,1.19415,-0.02199,0.01663,1.96611,-0.02705,-0.00226,2.13077,0.52439,0.14028,-0.29980,-0.64939,-3.54561,737.30932,740.59228,0.48005,13.90049,0.64939,-0.46935,6.52217,8.06253,7.59318
40.03499,0.55810,0.44064,-0.81169,-0.22848,0.16088,1.13869,-0.02199,0.01663,1.96611,-0.02705,-0.00226,2.13077,0.52439,0.14028,-0.29980,-0.64939,-3.54634,737.38446,729.16156,0.48001,13.90192,0.64939,-0.46865,6.52217,8.06253,7.59387
40.03599,0.55810,0.44064,-0.81169,-0.22848,0.16088,1.13869,-0.02199,0.01663,1.96611,-0.02705,-0.00226,2.13077,0.52439,0.14028,-0.29980,-0.64939,-3.54634,737.38446,729.16156,0.48001,13.90336,0.64739,-0.46795,6.52217,8.06253,7.59457
40.03699,0.69168,0.46290,-0.86873,-0.21922,0.16428,1.08665,-0.01573,0.01844,1.96611,-0.02970,-0.00014,2.14253,0.52139,0.17314,-0.29980,-0.64739,-3.62225,745.23358,729.16156,0.48642,13.90482,0.64739,-0.46682,6.52219,8.22324,7.75642
40.03799,0.69168,0.46290,-0.86873,-0.21922,0.16428,1.08665,-0.01573,0.01844,1.96611,-0.02970,-0.00014,2.14253,0.52139,0.17314,-0.29980,-0.64739,-3.62225,745.23358,729.16156,0.48642,13.90628,0.64739,-0.46568,6.52219,8.22324,7.75756
40.03900,0.69168,0.46290,-0.86873,-0.22746,0.16903,1.03671,-0.01573,0.01844,1.96611,-0.02970,-0.00014,2.14253,0.52139,0.17314,-0.29980,-0.64739,-3.62340,745.35186,729.16156,0.48642,13.90775,0.64739,-0.46435,6.52219,8.22324,7.75889
40.04000,0.69168,0.46290,-0.86873,-0.22746,0.16903,1.03671,-0.01573,0.01844,1.96611,-0.02970,-0.00014,2.14253,0.52139,0.17314,-0.29980,-0.64739,-3.62340,745.35186,732.13531,0.48642,13.90924,0.64739,-0.46302,6.52219,8.22324,7.76021
40.04100,0.69168,0.46290,-0.86873,-0.24089,0.16534,0.98184,-0.01573,0.01844,1.96611,-0.02970,-0.00014,2.14253,0.52139,0.17314,-0.29980,-0.64739,-3.62464,745.47930,729.16156,0.48642,13.91073,0.64739,-0.46170,6.52219,8.22324,7.76154
40.04199,0.69168,0.46290,-0.86873,-0.24089,0.16534,0.98184,-0.01573,0.01844,1.96611,-0.02970,-0.00014,2.14253,0.52139,0.17314,-0.29980,-0.64739,-3.62464,745.47930,732.13531,0.48642,13.91223,0.64739,-0.46037,6.52219,8.22324,7.76286
40.04299,0.69168,0.46290,-0.86873,-0.23895,0.15801,0.92100,-0.01573,0.01844,1.96611,-0.02970,-0.00014,2.14253,0.52139,0.17314,-0.29980,-0.64739,-3.62582,745.60137,729.16156,0.48642,13.91374,0.64739,-0.45916,6.52219,8.22324,7.76408
40.04399,0.69168,0.46290,-0.86873,-0.23895,0.15801,0.92100,-0.01573,0.01844,1.96611,-0.02970,-0.00014,2.14253,0.52139,0.17314,-0.29980,-0.64739,-3.62582,745.60137,729.16156,0.48642,13.91526,0.64739,-0.45794,6.52219,8.22324,7.76530
40.04499,0.69168,0.46290,-0.86873,-0.22926,0.15789,0.86066,-0.01573,0.01844,1.96611,-0.02970,-0.00014,2.14253,0.52139,0.17314,-0.29980,-0.64739,-3.62698,745.72064,730.34814,0.48641,13.91679,0.64739,-0.45667,6.52219,8.22324,7.76657
40.04600,0.69168,0.46290,-0.86873,-0.22926,0.15789,0.86066,-0.01573,0.01844,1.96611,-0.02970,-0.00014,2.14253,0.52139,0.17314,-0.29980,-0.64739,-3.62698,745.72064,732.13531,0.48641,13.91833,0.64739,-0.45540,6.52219,8.22324,7.76783
40.04700,0.59585,0.44126,-0.91348,-0.23310,0.16262,0.80394,-0.01883,0.01861,1.96611,-0.03234,0.00190,2.15157,0.52139,0.17314,-0.29980,-0.64739,-3.62845,745.87164,733.33160,0.48643,13.91988,0.64739,-0.45399,6.52219,8.22371,7.76971
40.04800,0.59585,0.44126,-0.91348,-0.23310,0.16262,0.80394,-0.01883,0.01861,1.96611,-0.03234,0.00190,2.15157,0.52139,0.17314,-0.29980,-0.64739,-3.62845,745.87164,733.33160,0.48643,13.92144,0.64739,-0.45259,6.52219,8.22371,7.77112
40.04899,0.59585,0.44126,-0.91348,-0.24667,0.16104,0.74631,-0.01883,0.01861,1.96611,-0.03234,0.00190,2.15157,0.52139,0.17314,-0.29980,-0.64739,-3.62974,746.00354,733.93121,0.48643,13.92301,0.64739,-0.45125,6.52219,8.22371,7.77246
40.04999,0.59585,0.44126,-0.91348,-0.24667,0.16104,0.74631,-0.01883,0.01861,1.96611,-0.03234,0.00190,2.15157,0.52139,0.17314,-0.29980,-0.64739,-3.62974,746.00354,733.93121,0.48643,13.92459,0.64739,-0.44991,6.52219,8.22371,7.77380
40.05099,0.59585,0.44126,-0.91348,-0.24764,0.15340,0.68476,-0.01883,0.01861,1.96611,-0.03234,0.00190,2.15157,0.52139,0.17314,-0.29980,-0.64739,-3.63088,746.12060,733.93121,0.48641,13.92617,0.64739,-0.44881,6.52219,8.22371,7.77490
40.05199,0.59585,0.44126,-0.91348,-0.24764,0.15340,0.68476,-0.01883,0.01861,1.96611,-0.03234,0.00190,2.15157,0.52139,0.17314,-0.29980,-0.64739,-3.63088,746.12060,738.15612,0.48641,13.92777,0.64739,-0.44771,6.52219,8.22371,7.77600
40.05300,0.59585,0.44126,-0.91348,-0.23549,0.15060,0.62399,-0.01883,0.01861,1.96611,-0.03234,0.00190,2.15157,0.52139,0.17314,-0.29980,-0.64739,-3.63187,746.22283,739.37219,0.48639,13.92937,0.64739,-0.44668,6.52219,8.22371,7.77703
40.05400,0.59585,0.44126,-0.91348,-0.23549,0.15060,0.62399,-0.01883,0.01861,1.96611,-0.03234,0.00190,2.15157,0.52139,0.17314,-0.29980,-0.64739,-3.63187,746.22283,738.15612,0.48639,13.93098,0.64739,-0.44565,6.52219,8.22371,7.77806
40.05500,0.59585,0.44126,-0.91348,-0.23322,0.15395,0.56822,-0.01883,0.01861,1.96611,-0.03234,0.00190,2.15157,0.52139,0.17314,-0.29980,-0.64739,-3.63290,746.32855,739.37219,0.48636,13.93260,0.64739,-0.44447,6.52219,8.22371,7.77923
40.05599,0.59585,0.44126,-0.91348,-0.23322,0.15395,0.56822,-0.01883,0.01861,1.96611,-0.03234,0.00190,2.15157,0.52139,0.17314,-0.29980,-0.64739,-3.63290,746.32855,739.37219,0.48636,13.93423,0.64380,-0.44330,6.52219,8.22371,7.78041
40.05699,0.74695,0.36599,-0.94526,-0.24634,0.15215,0.51341,-0.01227,0.01545,1.96611,-0.03504,0.00382,2.15761,0.51599,0.20549,-0.29980,-0.64380,-3.71294,754.50292,741.20391,0.49301,13.93587,0.64380,-0.44175,6.52223,8.39238,7.95062
40.05799,0.74695,0.36599,-0.94526,-0.24634,0.15215,0.51341,-0.01227,0.01545,1.96611,-0.03504,0.00382,2.15761,0.51599,0.20549,-0.29980,-0.64380,-3.71294,754.50292,739.37219,0.49301,13.93751,0.64380,-0.44021,6.52223,8.39238,7.95216
40.05899,0.74695,0.36599,-0.94526,-0.25245,0.14129,0.45406,-0.01227,0.01545,1.96611,-0.03504,0.00382,2.15761,0.51599,0.20549,-0.29980,-0.64380,-3.71428,754.63916,739.37219,0.49301,13.93916,0.64380,-0.43888,6.52223,8.39238,7.95349
40.06000,0.74695,0.36599,-0.94526,-0.25245,0.14129,0.45406,-0.01227,0.01545,1.96611,-0.03504,0.00382,2.15761,0.51599,0.20549,-0.29980,-0.64380,-3.71428,754.63916,743.66021,0.49301,13.94082,0.64380,-0.43755,6.52223,8.39238,7.95482
40.06100,0.74695,0.36599,-0.94526,-0.24072,0.13217,0.39269,-0.01227,0.01545,1.96611,-0.03504,0.00382,2.15761,0.51599,0.20549,-0.29980,-0.64380,-3.71543,754.75610,743.66021,0.49299,13.94249,0.64380,-0.43642,6.52223,8.39238,7.95596
40.06200,0.74695,0.36599,-0.94526,-0.24072,0.13217,0.39269,-0.01227,0.01545,1.96611,-0.03504,0.00382,2.15761,0.51599,0.20549,-0.29980,-0.64380,-3.71543,754.75610,743.66021,0.49299,13.94416,0.64380,-0.43528,6.52223,8.39238,7.95709
40.06299,0.74695,0.36599,-0.94526,-0.23058,0.13193,0.33540,-0.01227,0.01545,1.96611,-0.03504,0.00382,2.15761,0.51599,0.20549,-0.29980,-0.64380,-3.71651,754.86541,743.66021,0.49296,13.94584,0.64380,-0.43411,6.52223,8.39238,7.95826
40.06399,0.74695,0.36599,-0.94526,-0.23058,0.13193,0.33540,-0.01227,0.01545,1.96611,-0.03504,0.00382,2.15761,0.51599,0.20549,-0.29980,-0.64380,-3.71651,754.86541,743.66021,0.49296,13.94752,0.64380,-0.43294,6.52223,8.39238,7.95943
40.06499,0.74695,0.36599,-0.94526,-0.23688,0.13264,0.28151,-0.01227,0.01545,1.96611,-0.03504,0.00382,2.15761,0.51599,0.20549,-0.29980,-0.64380,-3.71763,754.97912,745.51318,0.49293,13.94921,0.64380,-0.43171,6.52223,8.39238,7.96066
40.06600,0.74695,0.36599,-0.94526,-0.23688,0.13264,0.28151,-0.01227,0.01545,1.96611,-0.03504,0.00382,2.15761,0.51599,0.20549,-0.29980,-0.64380,-3.71763,754.97912,745.51318,0.49293,13.95090,0.63959,-0.43049,6.52223,8.39238,7.96189
40.06700,0.88199,0.26871,-0.96376,-0.24390,0.12662,0.22584,-0.00337,0.00940,1.96611,-0.03777,0.00545,2.16076,0.50969,0.24107,-0.29980,-0.63959,-3.80632,763.92999,745.51318,0.50021,13.95260,0.63959,-0.42902,6.52227,8.57962,8.15059
40.06800,0.88199,0.26871,-0.96376,-0.24390,0.12662,0.22584,-0.00337,0.00940,1.96611,-0.03777,0.00545,2.16076,0.50969,0.24107,-0.29980,-0.63959,-3.80632,763.92999,743.66021,0.50021,13.95430,0.63959,-0.42755,6.52227,8.57962,8.15206
40.06900,0.88199,0.26871,-0.96376,-0.23432,0.12018,0.16889,-0.00337,0.00940,1.96611,-0.03777,0.00545,2.16076,0.50969,0.24107,-0.29980,-0.63959,-3.80763,764.06072,745.51318,0.50020,13.95601,0.63959,-0.42623,6.52227,8.57962,8.15338
40.06999,0.88199,0.26871,-0.96376,-0.23432,0.12018,0.16889,-0.00337,0.00940,1.96611,-0.03777,0.00545,2.16076,0.50969,0.24107,-0.29980,-0.63959,-3.80763,764.06072,745.51318,0.50020,13.95772,0.63959,-0.42491,6.52227,8.57962,8.15470
40.07099,0.88199,0.26871,-0.96376,-0.22042,0.12113,0.11629,-0.00337,0.00940,1.96611,-0.03777,0.00545,2.16076,0.50969,0.24107,-0.29980,-0.63959,-3.80890,764.18792,745.51318,0.50018,13.95943,0.63959,-0.42351,6.52227,8.57962,8.15610
40.07199,0.88199,0.26871,-0.96376,-0.22042,0.12113,0.11629,-0.00337,0.00940,1.96611,-0.03777,0.00545,2.16076,0.50969,0.24107,-0.29980,-0.63959,-3.80890,764.18792,745.51318,0.50018,13.96115,0.63959,-0.42212,6.52227,8.57962,8.15749
40.07300,0.88199,0.26871,-0.96376,-0.22140,0.12352,0.06831,-0.00337,0.00940,1.96611,-0.03777,0.00545,2.16076,0.50969,0.24107,-0.29980,-0.63959,-3.81027,764.32604,745.51318,0.50017,13.96287,0.63959,-0.42056,6.52227,8.57962,8.15905
40.07400,0.88199,0.26871,-0.96376,-0.22140,0.12352,0.06831,-0.00337,0.00940,1.96611,-0.03777,0.00545,2.16076,0.50969,0.24107,-0.29980,-0.63959,-3.81027,764.32604,746.13293,0.50017,13.96459,0.63959,-0.41901,6.52227,8.57962,8.16060
40.07500,0.88199,0.26871,-0.96376,-0.22828,0.11799,0.01893,-0.00337,0.00940,1.96611,-0.03777,0.00545,2.16076,0.50969,0.24107,-0.29980,-0.63959,-3.81170,764.46911,746.13293,0.50017,13.96631,0.63959,-0.41751,6.52227,8.57962,8.16210
40.07600,0.88199,0.26871,-0.96376,-0.22828,0.11799,0.01893,-0.00337,0.00940,1.96611,-0.03777,0.00545,2.16076,0.50969,0.24107,-0.29980,-0.63959,-3.81170,764.46911,746.13293,0.50017,13.96803,0.63959,-0.41601,6.52227,8.57962,8.16360
40.07699,0.67887,0.38681,-0.96063,-0.22056,0.10896,-0.03353,-0.00998,0.01275,1.96611,-0.04033,0.00684,2.16120,0.50969,0.24107,-0.29980,-0.63959,-3.81334,764.63415,746.13293,0.50018,13.96975,0.63959,-0.41468,6.52227,8.58031,8.16563
40.07799,0.67887,0.38681,-0.96063,-0.22056,0.10896,-0.03353,-0.00998,0.01275,1.96611,-0.04033,0.00684,2.16120,0.50969,0.24107,-0.29980,-0.63959,-3.81334,764.63415,746.13293,0.50018,13.97148,0.63959,-0.41335,6.52227,8.58031,8.16695
40.07899,0.67887,0.38681,-0.96063,-0.20379,0.10735,-0.08357,-0.00998,0.01275,1.96611,-0.04033,0.00684,2.16120,0.50969,0.24107,-0.29980,-0.63959,-3.81459,764.75897,746.13293,0.50016,13.97320,0.63959,-0.41201,6.52227,8.58031,8.16829
40.08000,0.67887,0.38681,-0.96063,-0.20379,0.10735,-0.08357,-0.00998,0.01275,1.96611,-0.04033,0.00684,2.16120,0.50969,0.24107,-0.29980,-0.63959,-3.81459,764.75897,746.13293,0.50016,13.97493,0.63959,-0.41068,6.52227,8.58031,8.16963
40.08100,0.67887,0.38681,-0.96063,-0.19918,0.11146,-0.12864,-0.00998,0.01275,1.96611,-0.04033,0.00684,2.16120,0.50969,0.24107,-0.29980,-0.63959,-3.81591,764.89147,746.13293,0.50015,13.97666,0.63959,-0.40918,6.52227,8.58031,8.17112
40.08200,0.67887,0.38681,-0.96063,-0.19918,0.11146,-0.12864,-0.00998,0.01275,1.96611,-0.04033,0.00684,2.16120,0.50969,0.24107,-0.29980,-0.63959,-3.81591,764.89147,746.13293,0.50015,13.97838,0.63959,-0.40769,6.52227,8.58031,8.17262
40.08300,0.67887,0.38681,-0.96063,-0.20463,0.11031,-0.17402,-0.00998,0.01275,1.96611,-0.04033,0.00684,2.16120,0.50969,0.24107,-0.29980,-0.63959,-3.81730,765.03070,746.13293,0.50014,13.98011,0.63959,-0.40621,6.52227,8.58031,8.17410
40.08399,0.67887,0.38681,-0.96063,-0.20463,0.11031,-0.17402,-0.00998,0.01275,1.96611,-0.04033,0.00684,2.16120,0.50969,0.24107,-0.29980,-0.63959,-3.81730,765.03070,749.24700,0.50014,13.98184,0.63959,-0.40473,6.52227,8.58031,8.17558
40.08499,0.67887,0.38681,-0.96063,-0.19859,0.10297,-0.22372,-0.00998,0.01275,1.96611,-0.04033,0.00684,2.16120,0.50969,0.24107,-0.29980,-0.63959,-3.81860,765.16070,749.24700,0.50012,13.98357,0.63959,-0.40343,6.52227,8.58031,8.17688
40.08599,0.67887,0.38681,-0.96063,-0.19859,0.10297,-0.22372,-0.00998,0.01275,1.96611,-0.04033,0.00684,2.16120,0.50969,0.24107,-0.29980,-0.63959,-3.81860,765.16070,749.24700,0.50012,13.98531,0.63470,-0.40213,6.52227,8.58031,8.17817
40.08700,0.95823,0.28305,-0.95453,-0.17966,0.09904,-0.27364,0.00260,0.00798,1.96611,-0.04262,0.00800,2.15926,0.50234,0.27932,-0.29980,-0.63470,-3.91541,774.79620,749.24700,0.50794,13.98704,0.63470,-0.40050,6.52233,8.78469,8.38418
40.08800,0.95823,0.28305,-0.95453,-0.17966,0.09904,-0.27364,0.00260,0.00798,1.96611,-0.04262,0.00800,2.15926,0.50234,0.27932,-0.29980,-0.63470,-3.91541,774.79620,749.24700,0.50794,13.98877,0.63470,-0.39888,6.52233,8.78469,8.38581
40.08900,0.95823,0.28305,-0.95453,-0.16951,0.10041,-0.31897,0.00260,0.00798,1.96611,-0.04262,0.00800,2.15926,0.50234,0.27932,-0.29980,-0.63470,-3.91697,774.95001,750.49993,0.50794,13.99051,0.63470,-0.39718,6.52233,8.78469,8.38751
40.09000,0.95823,0.28305,-0.95453,-0.16951,0.10041,-0.31897,0.00260,0.00798,1.96611,-0.04262,0.00800,2.15926,0.50234,0.27932,-0.29980,-0.63470,-3.91697,774.95001,750.49993,0.50794,13.99224,0.63470,-0.39547,6.52233,8.78469,8.38921
40.09099,0.95823,0.28305,-0.95453,-0.17392,0.09868,-0.36234,0.00260,0.00798,1.96611,-0.04262,0.00800,2.15926,0.50234,0.27932,-0.29980,-0.63470,-3.91853,775.10461,750.49993,0.50794,13.99397,0.63470,-0.39383,6.52233,8.78469,8.39086
40.09199,0.95823,0.28305,-0.95453,-0.17392,0.09868,-0.36234,0.00260,0.00798,1.96611,-0.04262,0.00800,2.15926,0.50234,0.27932,-0.29980,-0.63470,-3.91853,775.10461,757.46655,0.50794,13.99571,0.63470,-0.39218,6.52233,8.78469,8.39250
40.09299,0.95823,0.28305,-0.95453,-0.17328,0.09203,-0.40807,0.00260,0.00798,1.96611,-0.04262,0.00800,2.15926,0.50234,0.27932,-0.29980,-0.63470,-3.91996,775.24615,750.49993,0.50794,13.99744,0.63470,-0.39076,6.52233,8.78469,8.39392
40.09400,0.95823,0.28305,-0.95453,-0.17328,0.09203,-0.40807,0.00260,0.00798,1.96611,-0.04262,0.00800,2.15926,0.50234,0.27932,-0.29980,-0.63470,-3.91996,775.24615,757.46655,0.50794,13.99917,0.63470,-0.38935,6.52233,8.78469,8.39534
40.09500,0.95823,0.28305,-0.95453,-0.15876,0.08903,-0.45371,0.00260,0.00798,1.96611,-0.04262,0.00800,2.15926,0.50234,0.27932,-0.29980,-0.63470,-3.92123,775.37182,758.74719,0.50791,14.00090,0.63470,-0.38804,6.52233,8.78469,8.39664
40.09600,0.95823,0.28305,-0.95453,-0.15876,0.08903,-0.45371,0.00260,0.00798,1.96611,-0.04262,0.00800,2.15926,0.50234,0.27932,-0.29980,-0.63470,-3.92123,775.37182,757.46655,0.50791,14.00262,0.62930,-0.38674,6.52233,8.78469,8.39795
40.09700,0.97696,0.30320,-0.93199,-0.14664,0.09202,-0.49433,0.00809,0.00729,1.96611,-0.04453,0.00895,2.15503,0.49424,0.31526,-0.29980,-0.62930,-4.01533,784.61584,757.46655,0.51540,14.00435,0.62930,-0.38494,6.52239,8.98308,8.59813
40.09799,0.97696,0.30320,-0.93199,-0.14664,0.09202,-0.49433,0.00809,0.00729,1.96611,-0.04453,0.00895,2.15503,0.49424,0.31526,-0.29980,-0.62930,-4.01533,784.61584,757.46655,0.51540,14.00607,0.62930,-0.38314,6.52239,8.98308,8.59993
40.09899,0.97696,0.30320,-0.93199,-0.14597,0.09173,-0.53166,0.00809,0.00729,1.96611,-0.04453,0.00895,2.15503,0.49424,0.31526,-0.29980,-0.62930,-4.01703,784.78216,756.82794,0.51541,14.00779,0.62930,-0.38129,6.52239,8.98308,8.60178
40.09999,0.97696,0.30320,-0.93199,-0.14597,0.09173,-0.53166,0.00809,0.00729,1.96611,-0.04453,0.00895,2.15503,0.49424,0.31526,-0.29980,-0.62930,-4.01703,784.78216,756.82794,0.51541,14.00951,0.62930,-0.37945,6.52239,8.98308,8.60363
40.10100,0.97696,0.30320,-0.93199,-0.14186,0.08430,-0.57126,0.00809,0.00729,1.96611,-0.04453,0.00895,2.15503,0.49424,0.31526,-0.29980,-0.62930,-4.01868,784.94305,756.82794,0.51542,14.01123,0.62930,-0.37777,6.52239,8.98308,8.60531
40.10200,0.97696,0.30320,-0.93199,-0.14186,0.08430,-0.57126,0.00809,0.00729,1.96611,-0.04453,0.00895,2.15503,0.49424,0.31526,-0.29980,-0.62930,-4.01868,784.94305,758.74719,0.51542,14.01294,0.62930,-0.37608,6.52239,8.98308,8.60699
40.10300,0.97696,0.30320,-0.93199,-0.12552,0.07874,-0.61321,0.00809,0.00729,1.96611,-0.04453,0.00895,2.15503,0.49424,0.31526,-0.29980,-0.62930,-4.02018,785.09014,756.82794,0.51541,14.01465,0.62930,-0.37454,6.52239,8.98308,8.60853
40.10400,0.97696,0.30320,-0.93199,-0.12552,0.07874,-0.61321,0.00809,0.00729,1.96611,-0.04453,0.00895,2.15503,0.49424,0.31526,-0.29980,-0.62930,-4.02018,785.09014,756.82794,0.51541,14.01636,0.62930,-0.37300,6.52239,8.98308,8.61008
40.10499,0.97696,0.30320,-0.93199,-0.11374,0.08047,-0.65289,0.00809,0.00729,1.96611,-0.04453,0.00895,2.15503,0.49424,0.31526,-0.29980,-0.62930,-4.02166,785.23413,758.74719,0.51541,14.01806,0.62930,-0.37138,6.52239,8.98308,8.61169
40.10599,0.97696,0.30320,-0.93199,-0.11374,0.08047,-0.65289,0.00809,0.00729,1.96611,-0.04453,0.00895,2.15503,0.49424,0.31526,-0.29980,-0.62930,-4.02166,785.23413,763.26348,0.51541,14.01976,0.62529,-0.36977,6.52239,8.98308,8.61330
40.10699,0.91234,0.34676,-0.89829,-0.11890,0.08161,-0.68986,0.00840,0.00881,1.96611,-0.04607,0.00967,2.14878,0.48824,0.34616,-0.29980,-0.62529,-4.10097,792.93609,763.26348,0.52162,14.02146,0.62529,-0.36776,6.52244,9.14929,8.78152
40.10800,0.91234,0.34676,-0.89829,-0.11890,0.08161,-0.68986,0.00840,0.00881,1.96611,-0.04607,0.00967,2.14878,0.48824,0.34616,-0.29980,-0.62529,-4.10097,792.93609,764.56378,0.52162,14.02315,0.62529,-0.36574,6.52244,9.14929,8.78353
40.10900,0.91234,0.34676,-0.89829,-0.12415,0.07600,-0.72843,0.00840,0.00881,1.96611,-0.04607,0.00967,2.14878,0.48824,0.34616,-0.29980,-0.62529,-4.10279,793.11248,783.92828,0.52164,14.02484,0.62529,-0.36385,6.52244,9.14929,8.78543
40.11000,0.91234,0.34676,-0.89829,-0.12415,0.07600,-0.72843,0.00840,0.00881,1.96611,-0.04607,0.00967,2.14878,0.48824,0.34616,-0.29980,-0.62529,-4.10279,793.11248,783.92828,0.52164,14.02652,0.62529,-0.36196,6.52244,9.14929,8.78732
40.11100,0.91234,0.34676,-0.89829,-0.11162,0.07062,-0.76913,0.00840,0.00881,1.96611,-0.04607,0.00967,2.14878,0.48824,0.34616,-0.29980,-0.62529,-4.10451,793.27795,783.92828,0.52165,14.02820,0.62529,-0.36018,6.52244,9.14929,8.78910
40.11199,0.91234,0.34676,-0.89829,-0.11162,0.07062,-0.76913,0.00840,0.00881,1.96611,-0.04607,0.00967,2.14878,0.48824,0.34616,-0.29980,-0.62529,-4.10451,793.27795,783.92828,0.52165,14.02988,0.62529,-0.35841,6.52244,9.14929,8.79087
40.11299,0.91234,0.34676,-0.89829,-0.09365,0.07233,-0.80737,0.00840,0.00881,1.96611,-0.04607,0.00967,2.14878,0.48824,0.34616,-0.29980,-0.62529,-4.10620,793.44189,772.45947,0.52166,14.03155,0.62529,-0.35655,6.52244,9.14929,8.79273
40.11399,0.91234,0.34676,-0.89829,-0.09365,0.07233,-0.80737,0.00840,0.00881,1.96611,-0.04607,0.00967,2.14878,0.48824,0.34616,-0.29980,-0.62529,-4.10620,793.44189,772.45947,0.52166,14.03322,0.62529,-0.35469,6.52244,9.14929,8.79459
40.11500,0.91234,0.34676,-0.89829,-0.08962,0.07519,-0.84203,0.00840,0.00881,1.96611,-0.04607,0.00967,2.14878,0.48824,0.34616,-0.29980,-0.62529,-4.10800,793.61572,772.45947,0.52168,14.03488,0.62529,-0.35270,6.52244,9.14929,8.79658
40.11600,0.91234,0.34676,-0.89829,-0.08962,0.07519,-0.84203,0.00840,0.00881,1.96611,-0.04607,0.00967,2.14878,0.48824,0.34616,-0.29980,-0.62529,-4.10800,793.61572,772.45947,0.52168,14.03654,0.62529,-0.35070,6.52244,9.14929,8.79858
40.11700,0.75054,0.36777,-0.85607,-0.09122,0.07174,-0.87759,0.00107,0.01045,1.96611,-0.04738,0.01020,2.14062,0.48824,0.34616,-0.29980,-0.62529,-4.10976,793.78533,772.45947,0.52169,14.03818,0.62529,-0.34876,6.52244,9.14911,8.80034
40.11800,0.75054,0.36777,-0.85607,-0.09122,0.07174,-0.87759,0.00107,0.01045,1.96611,-0.04738,0.01020,2.14062,0.48824,0.34616,-0.29980,-0.62529,-4.10976,793.78533,765.21557,0.52169,14.03983,0.62529,-0.34682,6.52244,9.14911,8.80228
40.11899,0.75054,0.36777,-0.85607,-0.07989,0.06661,-0.91597,0.00107,0.01045,1.96611,-0.04738,0.01020,2.14062,0.48824,0.34616,-0.29980,-0.62529,-4.11151,793.95440,765.21557,0.52171,14.04146,0.62529,-0.34501,6.52244,9.14911,8.80409
40.11999,0.75054,0.36777,-0.85607,-0.07989,0.06661,-0.91597,0.00107,0.01045,1.96611,-0.04738,0.01020,2.14062,0.48824,0.34616,-0.29980,-0.62529,-4.11151,793.95440,765.21557,0.52171,14.04309,0.62529,-0.34320,6.52244,9.14911,8.80590
40.12099,0.75054,0.36777,-0.85607,-0.06246,0.06702,-0.95369,0.00107,0.01045,1.96611,-0.04738,0.01020,2.14062,0.48824,0.34616,-0.29980,-0.62529,-4.11322,794.11926,765.21557,0.52172,14.04472,0.62529,-0.34136,6.52244,9.14911,8.80775
40.12200,0.75054,0.36777,-0.85607,-0.06246,0.06702,-0.95369,0.00107,0.01045,1.96611,-0.04738,0.01020,2.14062,0.48824,0.34616,-0.29980,-0.62529,-4.11322,794.11926,765.21557,0.52172,14.04634,0.62529,-0.33951,6.52244,9.14911,8.80959
40.12300,0.75054,0.36777,-0.85607,-0.05766,0.06903,-0.98947,0.00107,0.01045,1.96611,-0.04738,0.01020,2.14062,0.48824,0.34616,-0.29980,-0.62529,-4.11499,794.29010,767.83392,0.52174,14.04795,0.62529,-0.33757,6.52244,9.14911,8.81154
40.12400,0.75054,0.36777,-0.85607,-0.05766,0.06903,-0.98947,0.00107,0.01045,1.96611,-0.04738,0.01020,2.14062,0.48824,0.34616,-0.29980,-0.62529,-4.11499,794.29010,767.83392,0.52174,14.04956,0.62529,-0.33562,6.52244,9.14911,8.81348
40.12500,0.75054,0.36777,-0.85607,-0.06033,0.06583,-1.02700,0.00107,0.01045,1.96611,-0.04738,0.01020,2.14062,0.48824,0.34616,-0.29980,-0.62529,-4.11677,794.46234,767.83392,0.52177,14.05115,0.62529,-0.33374,6.52244,9.14911,8.81536
40.12599,0.75054,0.36777,-0.85607,-0.06033,0.06583,-1.02700,0.00107,0.01045,1.96611,-0.04738,0.01020,2.14062,0.48824,0.34616,-0.29980,-0.62529,-4.11677,794.46234,767.83392,0.52177,14.05274,0.61900,-0.33187,6.52244,9.14911,8.81724
40.12699,1.01999,0.26621,-0.81064,-0.05185,0.06132,-1.06721,0.01213,0.00619,1.96611,-0.04833,0.01062,2.13063,0.47879,0.37175,-0.29980,-0.61900,-4.19243,801.72442,771.79522,0.52761,14.05433,0.61900,-0.32977,6.52253,9.30715,8.97738
40.12799,1.01999,0.26621,-0.81064,-0.05185,0.06132,-1.06721,0.01213,0.00619,1.96611,-0.04833,0.01062,2.13063,0.47879,0.37175,-0.29980,-0.61900,-4.19243,801.72442,772.45947,0.52761,14.05590,0.61900,-0.32768,6.52253,9.30715,8.97947
40.12900,1.01999,0.26621,-0.81064,-0.03582,0.06270,-1.10525,0.01213,0.00619,1.96611,-0.04833,0.01062,2.13063,0.47879,0.37175,-0.29980,-0.61900,-4.19443,801.91534,773.12475,0.52765,14.05747,0.61900,-0.32550,6.52253,9.30715,8.98165
40.13000,1.01999,0.26621,-0.81064,-0.03582,0.06270,-1.10525,0.01213,0.00619,1.96611,-0.04833,0.01062,2.13063,0.47879,0.37175,-0.29980,-0.61900,-4.19443,801.91534,772.45947,0.52765,14.05902,0.61900,-0.32331,6.52253,9.30715,8.98383
40.13100,1.01999,0.26621,-0.81064,-0.02977,0.06613,-1.13844,0.01213,0.00619,1.96611,-0.04833,0.01062,2.13063,0.47879,0.37175,-0.29980,-0.61900,-4.19654,802.11724,772.45947,0.52770,14.06057,0.61900,-0.32097,6.52253,9.30715,8.98617
40.13199,1.01999,0.26621,-0.81064,-0.02977,0.06613,-1.13844,0.01213,0.00619,1.96611,-0.04833,0.01062,2.13063,0.47879,0.37175,-0.29980,-0.61900,-4.19654,802.11724,771.79522,0.52770,14.06211,0.61900,-0.31863,6.52253,9.30715,8.98851
40.13299,1.01999,0.26621,-0.81064,-0.03009,0.06306,-1.17057,0.01213,0.00619,1.96611,-0.04833,0.01062,2.13063,0.47879,0.37175,-0.29980,-0.61900,-4.19871,802.32427,772.45947,0.52775,14.06364,0.61900,-0.31633,6.52253,9.30715,8.99081
40.13399,1.01999,0.26621,-0.81064,-0.03009,0.06306,-1.17057,0.01213,0.00619,1.96611,-0.04833,0.01062,2.13063,0.47879,0.37175,-0.29980,-0.61900,-4.19871,802.32427,773.12475,0.52775,14.06516,0.61900,-0.31403,6.52253,9.30715,8.99312
40.13499,1.01999,0.26621,-0.81064,-0.01907,0.05587,-1.20466,0.01213,0.00619,1.96611,-0.04833,0.01062,2.13063,0.47879,0.37175,-0.29980,-0.61900,-4.20078,802.52209,772.45947,0.52780,14.06667,0.61900,-0.31190,6.52253,9.30715,8.99525
40.13600,1.01999,0.26621,-0.81064,-0.01907,0.05587,-1.20466,0.01213,0.00619,1.96611,-0.04833,0.01062,2.13063,0.47879,0.37175,-0.29980,-0.61900,-4.20078,802.52209,772.45947,0.52780,14.06818,0.61900,-0.30977,6.52253,9.30715,8.99738
40.13700,0.80931,0.33635,-0.74781,-0.00035,0.05345,-1.23800,0.00487,0.00847,1.96611,-0.04891,0.01089,2.11879,0.47879,0.37175,-0.29980,-0.61900,-4.20255,802.69122,772.45947,0.52783,14.06967,0.61900,-0.30769,6.52253,9.30673,8.99904
40.13800,0.80931,0.33635,-0.74781,-0.00035,0.05345,-1.23800,0.00487,0.00847,1.96611,-0.04891,0.01089,2.11879,0.47879,0.37175,-0.29980,-0.61900,-4.20255,802.69122,772.45947,0.52783,14.07115,0.61900,-0.30561,6.52253,9.30673,9.00112
40.13899,0.80931,0.33635,-0.74781,0.00660,0.05508,-1.26819,0.00487,0.00847,1.96611,-0.04891,0.01089,2.11879,0.47879,0.37175,-0.29980,-0.61900,-4.20450,802.87762,773.12475,0.52787,14.07262,0.61900,-0.30351,6.52253,9.30673,9.00322
40.13999,0.80931,0.33635,-0.74781,0.00660,0.05508,-1.26819,0.00487,0.00847,1.96611,-0.04891,0.01089,2.11879,0.47879,0.37175,-0.29980,-0.61900,-4.20450,802.87762,773.12475,0.52787,14.07408,0.61900,-0.30141,6.52253,9.30673,9.00532
40.14099,0.80931,0.33635,-0.74781,0.00305,0.05339,-1.29775,0.00487,0.00847,1.96611,-0.04891,0.01089,2.11879,0.47879,0.37175,-0.29980,-0.61900,-4.20641,803.06024,770.47027,0.52791,14.07554,0.61900,-0.29941,6.52253,9.30673,9.00732
40.14199,0.80931,0.33635,-0.74781,0.00305,0.05339,-1.29775,0.00487,0.00847,1.96611,-0.04891,0.01089,2.11879,0.47879,0.37175,-0.29980,-0.61900,-4.20641,803.06024,774.45892,0.52791,14.07698,0.61900,-0.29742,6.52253,9.30673,9.00931
40.14300,0.80931,0.33635,-0.74781,0.00772,0.04934,-1.32847,0.00487,0.00847,1.96611,-0.04891,0.01089,2.11879,0.47879,0.37175,-0.29980,-0.61900,-4.20820,803.23083,775.12774,0.52794,14.07841,0.61900,-0.29559,6.52253,9.30673,9.01114
40.14400,0.80931,0.33635,-0.74781,0.00772,0.04934,-1.32847,0.00487,0.00847,1.96611,-0.04891,0.01089,2.11879,0.47879,0.37175,-0.29980,-0.61900,-4.20820,803.23083,774.45892,0.52794,14.07983,0.61900,-0.29375,6.52253,9.30673,9.01298
40.14500,0.80931,0.33635,-0.74781,0.02092,0.04953,-1.35716,0.00487,0.00847,1.96611,-0.04891,0.01089,2.11879,0.47879,0.37175,-0.29980,-0.61900,-4.20991,803.39434,774.45892,0.52797,14.08124,0.61900,-0.29192,6.52253,9.30673,9.01481
40.14599,0.80931,0.33635,-0.74781,0.02092,0.04953,-1.35716,0.00487,0.00847,1.96611,-0.04891,0.01089,2.11879,0.47879,0.37175,-0.29980,-0.61900,-4.20991,803.39434,774.45892,0.52797,14.08264,0.61210,-0.29008,6.52253,9.30673,9.01665
40.14699,1.01198,0.21292,-0.68675,0.02619,0.05203,-1.38162,0.01356,0.00265,1.96611,-0.04906,0.01094,2.10539,0.46844,0.40440,-0.29980,-0.61210,-4.30244,812.16833,776.46875,0.53505,14.08403,0.61210,-0.28777,6.52263,9.50071,9.21294
40.14799,1.01198,0.21292,-0.68675,0.02619,0.05203,-1.38162,0.01356,0.00265,1.96611,-0.04906,0.01094,2.10539,0.46844,0.40440,-0.29980,-0.61210,-4.30244,812.16833,776.46875,0.53505,14.08541,0.61210,-0.28545,6.52263,9.50071,9.21525
40.14899,1.01198,0.21292,-0.68675,0.02517,0.04983,-1.40490,0.01356,0.00265,1.96611,-0.04906,0.01094,2.10539,0.46844,0.40440,-0.29980,-0.61210,-4.30454,812.36688,777.14105,0.53511,14.08677,0.61210,-0.28326,6.52263,9.50071,9.21744
40.15000,1.01198,0.21292,-0.68675,0.02517,0.04983,-1.40490,0.01356,0.00265,1.96611,-0.04906,0.01094,2.10539,0.46844,0.40440,-0.29980,-0.61210,-4.30454,812.36688,777.14105,0.53511,14.08812,0.61210,-0.28107,6.52263,9.50071,9.21963
40.15100,1.01198,0.21292,-0.68675,0.03599,0.04560,-1.42924,0.01356,0.00265,1.96611,-0.04906,0.01094,2.10539,0.46844,0.40440,-0.29980,-0.61210,-4.30647,812.54901,782.56134,0.53515,14.08947,0.61210,-0.27913,6.52263,9.50071,9.22157
40.15200,1.01198,0.21292,-0.68675,0.03599,0.04560,-1.42924,0.01356,0.00265,1.96611,-0.04906,0.01094,2.10539,0.46844,0.40440,-0.29980,-0.61210,-4.30647,812.54901,782.56134,0.53515,14.09080,0.61210,-0.27719,6.52263,9.50071,9.22351
40.15299,1.01198,0.21292,-0.68675,0.05722,0.04764,-1.45153,0.01356,0.00265,1.96611,-0.04906,0.01094,2.10539,0.46844,0.40440,-0.29980,-0.61210,-4.30824,812.71575,788.05786,0.53519,14.09212,0.61210,-0.27534,6.52263,9.50071,9.22536
40.15399,1.01198,0.21292,-0.68675,0.05722,0.04764,-1.45153,0.01356,0.00265,1.96611,-0.04906,0.01094,2.10539,0.46844,0.40440,-0.29980,-0.61210,-4.30824,812.71575,788.05786,0.53519,14.09343,0.61210,-0.27350,6.52263,9.50071,9.22720
40.15499,1.01198,0.21292,-0.68675,0.06804,0.05373,-1.46969,0.01356,0.00265,1.96611,-0.04906,0.01094,2.10539,0.46844,0.40440,-0.29980,-0.61210,-4.30999,812.88043,788.05786,0.53523,14.09473,0.61210,-0.27161,6.52263,9.50071,9.22910
40.15599,1.01198,0.21292,-0.68675,0.06804,0.05373,-1.46969,0.01356,0.00265,1.96611,-0.04906,0.01094,2.10539,0.46844,0.40440,-0.29980,-0.61210,-4.30999,812.88043,788.05786,0.53523,14.09601,0.60489,-0.26971,6.52263,9.50071,9.23099
40.15700,1.19348,0.29006,-0.60985,0.06562,0.05408,-1.48770,0.02635,0.00445,1.96611,-0.04886,0.01093,2.09077,0.45764,0.42488,-0.29980,-0.60489,-4.37877,819.33392,788.05786,0.54041,14.09729,0.60489,-0.26759,6.52274,9.64399,9.37639
40.15800,1.19348,0.29006,-0.60985,0.06562,0.05408,-1.48770,0.02635,0.00445,1.96611,-0.04886,0.01093,2.09077,0.45764,0.42488,-0.29980,-0.60489,-4.37877,819.33392,788.05786,0.54041,14.09855,0.60489,-0.26548,6.52274,9.64399,9.37850
40.15900,1.19348,0.29006,-0.60985,0.06803,0.04864,-1.50937,0.02635,0.00445,1.96611,-0.04886,0.01093,2.09077,0.45764,0.42488,-0.29980,-0.60489,-4.38066,819.51110,788.05786,0.54046,14.09979,0.60489,-0.26354,6.52274,9.64399,9.38044
40.15999,1.19348,0.29006,-0.60985,0.06803,0.04864,-1.50937,0.02635,0.00445,1.96611,-0.04886,0.01093,2.09077,0.45764,0.42488,-0.29980,-0.60489,-4.38066,819.51110,788.05786,0.54046,14.10103,0.60489,-0.26160,6.52274,9.64399,9.38238
40.16099,1.19348,0.29006,-0.60985,0.07905,0.04611,-1.53234,0.02635,0.00445,1.96611,-0.04886,0.01093,2.09077,0.45764,0.42488,-0.29980,-0.60489,-4.38245,819.67773,788.05786,0.54050,14.10225,0.60489,-0.25972,6.52274,9.64399,9.38426
40.16199,1.19348,0.29006,-0.60985,0.07905,0.04611,-1.53234,0.02635,0.00445,1.96611,-0.04886,0.01093,2.09077,0.45764,0.42488,-0.29980,-0.60489,-4.38245,819.67773,788.05786,0.54050,14.10346,0.60489,-0.25785,6.52274,9.64399,9.38613
40.16299,1.19348,0.29006,-0.60985,0.08411,0.04775,-1.55309,0.02635,0.00445,1.96611,-0.04886,0.01093,2.09077,0.45764,0.42488,-0.29980,-0.60489,-4.38421,819.84246,788.05786,0.54054,14.10466,0.60489,-0.25595,6.52274,9.64399,9.38803
40.16400,1.19348,0.29006,-0.60985,0.08411,0.04775,-1.55309,0.02635,0.00445,1.96611,-0.04886,0.01093,2.09077,0.45764,0.42488,-0.29980,-0.60489,-4.38421,819.84246,788.05786,0.54054,14.10584,0.60489,-0.25406,6.52274,9.64399,9.38992
40.16500,1.19348,0.29006,-0.60985,0.08280,0.04765,-1.57265,0.02635,0.00445,1.96611,-0.04886,0.01093,2.09077,0.45764,0.42488,-0.29980,-0.60489,-4.38592,820.00286,788.05786,0.54058,14.10702,0.60489,-0.25228,6.52274,9.64399,9.39170
40.16600,1.19348,0.29006,-0.60985,0.08280,0.04765,-1.57265,0.02635,0.00445,1.96611,-0.04886,0.01093,2.09077,0.45764,0.42488,-0.29980,-0.60489,-4.38592,820.00286,790.13897,0.54058,14.10818,0.60489,-0.25050,6.52274,9.64399,9.39348
40.16699,0.85759,0.32339,-0.53039,0.09095,0.04652,-1.59255,0.01574,0.00635,1.96611,-0.04829,0.01085,2.07519,0.45764,0.42488,-0.29980,-0.60489,-4.38653,820.05969,790.13897,0.54054,14.10933,0.60489,-0.24892,6.52274,9.64193,9.39301
40.16799,0.85759,0.32339,-0.53039,0.09095,0.04652,-1.59255,0.01574,0.00635,1.96611,-0.04829,0.01085,2.07519,0.45764,0.42488,-0.29980,-0.60489,-4.38653,820.05969,790.13897,0.54054,14.11046,0.60489,-0.24734,6.52274,9.64193,9.39458
40.16899,0.85759,0.32339,-0.53039,0.10787,0.04986,-1.61022,0.01574,0.00635,1.96611,-0.04829,0.01085,2.07519,0.45764,0.42488,-0.29980,-0.60489,-4.38798,820.19549,790.13897,0.54056,14.11159,0.60489,-0.24581,6.52274,9.64193,9.39612
40.16999,0.85759,0.32339,-0.53039,0.10787,0.04986,-1.61022,0.01574,0.00635,1.96611,-0.04829,0.01085,2.07519,0.45764,0.42488,-0.29980,-0.60489,-4.38798,820.19549,790.13897,0.54056,14.11271,0.60489,-0.24428,6.52274,9.64193,9.39765
40.17100,0.85759,0.32339,-0.53039,0.11516,0.05456,-1.62394,0.01574,0.00635,1.96611,-0.04829,0.01085,2.07519,0.45764,0.42488,-0.29980,-0.60489,-4.38943,820.33032,787.36657,0.54059,14.11381,0.60489,-0.24272,6.52274,9.64193,9.39921
40.17200,0.85759,0.32339,-0.53039,0.11516,0.05456,-1.62394,0.01574,0.00635,1.96611,-0.04829,0.01085,2.07519,0.45764,0.42488,-0.29980,-0.60489,-4.38943,820.33032,790.13897,0.54059,14.11490,0.60489,-0.24116,6.52274,9.64193,9.40077
40.17300,0.85759,0.32339,-0.53039,0.11127,0.05302,-1.63750,0.01574,0.00635,1.96611,-0.04829,0.01085,2.07519,0.45764,0.42488,-0.29980,-0.60489,-4.39081,820.45947,790.13897,0.54061,14.11598,0.60489,-0.23976,6.52274,9.64193,9.40217
40.17399,0.85759,0.32339,-0.53039,0.11127,0.05302,-1.63750,0.01574,0.00635,1.96611,-0.04829,0.01085,2.07519,0.45764,0.42488,-0.29980,-0.60489,-4.39081,820.45947,790.13897,0.54061,14.11704,0.60489,-0.23836,6.52274,9.64193,9.40357
40.17499,0.85759,0.32339,-0.53039,0.11442,0.04819,-1.65432,0.01574,0.00635,1.96611,-0.04829,0.01085,2.07519,0.45764,0.42488,-0.29980,-0.60489,-4.39199,820.57031,793.63208,0.54062,14.11809,0.60489,-0.23722,6.52274,9.64193,9.40470
40.17599,0.85759,0.32339,-0.53039,0.11442,0.04819,-1.65432,0.01574,0.00635,1.96611,-0.04829,0.01085,2.07519,0.45764,0.42488,-0.29980,-0.60489,-4.39199,820.57031,793.63208,0.54062,14.11913,0.59980,-0.23608,6.52274,9.64193,9.40584
40.17699,0.92906,0.16695,-0.45559,0.12771,0.04893,-1.67149,0.01738,-0.00081,1.96611,-0.04741,0.01075,2.05871,0.44999,0.44727,-0.29980,-0.59980,-4.45632,826.55242,793.63208,0.54543,14.12015,0.59980,-0.23474,6.52283,9.77720,9.54246
40.17800,0.92906,0.16695,-0.45559,0.12771,0.04893,-1.67149,0.01738,-0.00081,1.96611,-0.04741,0.01075,2.05871,0.44999,0.44727,-0.29980,-0.59980,-4.45632,826.55242,793.63208,0.54543,14.12116,0.59980,-0.23340,6.52283,9.77720,9.54380
40.17900,0.92906,0.16695,-0.45559,0.13522,0.05360,-1.68539,0.01738,-0.00081,1.96611,-0.04741,0.01075,2.05871,0.44999,0.44727,-0.29980,-0.59980,-4.45762,826.67254,797.86480,0.54545,14.12216,0.59980,-0.23197,6.52283,9.77720,9.54523
40.18000,0.92906,0.16695,-0.45559,0.13522,0.05360,-1.68539,0.01738,-0.00081,1.96611,-0.04741,0.01075,2.05871,0.44999,0.44727,-0.29980,-0.59980,-4.45762,826.67254,798.57464,0.54545,14.12314,0.59980,-0.23053,6.52283,9.77720,9.54666
40.18099,0.92906,0.16695,-0.45559,0.13555,0.05412,-1.69807,0.01738,-0.00081,1.96611,-0.04741,0.01075,2.05871,0.44999,0.44727,-0.29980,-0.59980,-4.45896,826.79699,799.99810,0.54548,14.12411,0.59980,-0.22909,6.52283,9.77720,9.54811
40.18199,0.92906,0.16695,-0.45559,0.13555,0.05412,-1.69807,0.01738,-0.00081,1.96611,-0.04741,0.01075,2.05871,0.44999,0.44727,-0.29980,-0.59980,-4.45896,826.79699,799.99810,0.54548,14.12507,0.59980,-0.22765,6.52283,9.77720,9.54955
40.18299,0.92906,0.16695,-0.45559,0.14432,0.05191,-1.71211,0.01738,-0.00081,1.96611,-0.04741,0.01075,2.05871,0.44999,0.44727,-0.29980,-0.59980,-4.46027,826.91857,797.86480,0.54550,14.12601,0.59980,-0.22628,6.52283,9.77720,9.55091
40.18399,0.92906,0.16695,-0.45559,0.14432,0.05191,-1.71211,0.01738,-0.00081,1.96611,-0.04741,0.01075,2.05871,0.44999,0.44727,-0.29980,-0.59980,-4.46027,826.91857,797.86480,0.54550,14.12695,0.59980,-0.22492,6.52283,9.77720,9.55228
40.18500,0.92906,0.16695,-0.45559,0.16134,0.05420,-1.72476,0.01738,-0.00081,1.96611,-0.04741,0.01075,2.05871,0.44999,0.44727,-0.29980,-0.59980,-4.46156,827.03778,793.63208,0.54553,14.12786,0.59980,-0.22353,6.52283,9.77720,9.55367
40.18600,0.92906,0.16695,-0.45559,0.16134,0.05420,-1.72476,0.01738,-0.00081,1.96611,-0.04741,0.01075,2.05871,0.44999,0.44727,-0.29980,-0.59980,-4.46156,827.03778,799.99810,0.54553,14.12877,0.59189,-0.22214,6.52283,9.77720,9.55506
40.18700,0.99710,0.11557,-0.37213,0.17035,0.05910,-1.73336,0.02123,-0.00618,1.96611,-0.04614,0.01071,2.04153,0.43814,0.46997,-0.29980,-0.59189,-4.53607,833.90600,808.64678,0.55106,14.12967,0.59189,-0.22040,6.52298,9.93363,9.71323
40.18799,0.99710,0.11557,-0.37213,0.17035,0.05910,-1.73336,0.02123,-0.00618,1.96611,-0.04614,0.01071,2.04153,0.43814,0.46997,-0.29980,-0.59189,-4.53607,833.90600,808.64678,0.55106,14.13055,0.59189,-0.21866,6.52298,9.93363,9.71497
40.18899,0.99710,0.11557,-0.37213,0.17231,0.06000,-1.74097,0.02123,-0.00618,1.96611,-0.04614,0.01071,2.04153,0.43814,0.46997,-0.29980,-0.59189,-4.53764,834.04956,799.99810,0.55111,14.13142,0.59189,-0.21706,6.52298,9.93363,9.71657
40.18999,0.99710,0.11557,-0.37213,0.17231,0.06000,-1.74097,0.02123,-0.00618,1.96611,-0.04614,0.01071,2.04153,0.43814,0.46997,-0.29980,-0.59189,-4.53764,834.04956,799.99810,0.55111,14.13228,0.59189,-0.21545,6.52298,9.93363,9.71817
40.19100,0.99710,0.11557,-0.37213,0.18383,0.05959,-1.75048,0.02123,-0.00618,1.96611,-0.04614,0.01071,2.04153,0.43814,0.46997,-0.29980,-0.59189,-4.53904,834.17883,795.74279,0.55115,14.13312,0.59189,-0.21404,6.52298,9.93363,9.71958
40.19200,0.99710,0.11557,-0.37213,0.18383,0.05959,-1.75048,0.02123,-0.00618,1.96611,-0.04614,0.01071,2.04153,0.43814,0.46997,-0.29980,-0.59189,-4.53904,834.17883,795.74279,0.55115,14.13395,0.59189,-0.21264,6.52298,9.93363,9.72099
40.19300,0.99710,0.11557,-0.37213,0.20250,0.06435,-1.75879,0.02123,-0.00618,1.96611,-0.04614,0.01071,2.04153,0.43814,0.46997,-0.29980,-0.59189,-4.54036,834.30010,795.74279,0.55119,14.13477,0.59189,-0.21122,6.52298,9.93363,9.72241
40.19400,0.99710,0.11557,-0.37213,0.20250,0.06435,-1.75879,0.02123,-0.00618,1.96611,-0.04614,0.01071,2.04153,0.43814,0.46997,-0.29980,-0.59189,-4.54036,834.30010,797.86480,0.55119,14.13558,0.59189,-0.20980,6.52298,9.93363,9.72383
40.19499,0.99710,0.11557,-0.37213,0.20944,0.07085,-1.76285,0.02123,-0.00618,1.96611,-0.04614,0.01071,2.04153,0.43814,0.46997,-0.29980,-0.59189,-4.54173,834.42596,797.86480,0.55123,14.13638,0.59189,-0.20828,6.52298,9.93363,9.72534
40.19599,0.99710,0.11557,-0.37213,0.20944,0.07085,-1.76285,0.02123,-0.00618,1.96611,-0.04614,0.01071,2.04153,0.43814,0.46997,-0.29980,-0.59189,-4.54173,834.42596,797.86480,0.55123,14.13716,0.59189,-0.20677,6.52298,9.93363,9.72686
40.19699,0.84667,0.27512,-0.27687,0.20535,0.07228,-1.76554,0.01559,-0.00094,1.96611,-0.04435,0.01079,2.02387,0.43814,0.46997,-0.29980,-0.59189,-4.54256,834.50225,801.42669,0.55123,14.13794,0.59189,-0.20529,6.52298,9.93242,9.72712
40.19800,0.84667,0.27512,-0.27687,0.20535,0.07228,-1.76554,0.01559,-0.00094,1.96611,-0.04435,0.01079,2.02387,0.43814,0.46997,-0.29980,-0.59189,-4.54256,834.50225,801.42669,0.55123,14.13870,0.59189,-0.20381,6.52298,9.93242,9.72860
40.19900,0.84667,0.27512,-0.27687,0.20835,0.07209,-1.77007,0.01559,-0.00094,1.96611,-0.04435,0.01079,2.02387,0.43814,0.46997,-0.29980,-0.59189,-4.54391,834.62597,801.42669,0.55127,14.13946,0.59189,-0.20241,6.52298,9.93242,9.73001
40.20000,0.84667,0.27512,-0.27687,0.20835,0.07209,-1.77007,0.01559,-0.00094,1.96611,-0.04435,0.01079,2.02387,0.43814,0.46997,-0.29980,-0.59189,-4.54391,834.62597,802.14288,0.55127,14.14020,0.59189,-0.20100,6.52298,9.93242,9.73141
40.20100,0.84667,0.27512,-0.27687,0.21862,0.07696,-1.77430,0.01559,-0.00094,1.96611,-0.04435,0.01079,2.02387,0.43814,0.46997,-0.29980,-0.59189,-4.54527,834.75042,802.14288,0.55131,14.14094,0.59189,-0.19950,6.52298,9.93242,9.73291
40.20199,0.84667,0.27512,-0.27687,0.21862,0.07696,-1.77430,0.01559,-0.00094,1.96611,-0.04435,0.01079,2.02387,0.43814,0.46997,-0.29980,-0.59189,-4.54527,834.75042,802.14288,0.55131,14.14166,0.59189,-0.19800,6.52298,9.93242,9.73441
40.20299,0.84667,0.27512,-0.27687,0.22067,0.08346,-1.77568,0.01559,-0.00094,1.96611,-0.04435,0.01079,2.02387,0.43814,0.46997,-0.29980,-0.59189,-4.54672,834.88409,807.19238,0.55137,14.14238,0.59189,-0.19638,6.52298,9.93242,9.73603
40.20399,0.84667,0.27512,-0.27687,0.22067,0.08346,-1.77568,0.01559,-0.00094,1.96611,-0.04435,0.01079,2.02387,0.43814,0.46997,-0.29980,-0.59189,-4.54672,834.88409,807.19238,0.55137,14.14309,0.59189,-0.19476,6.52298,9.93242,9.73765
40.20500,0.84667,0.27512,-0.27687,0.21629,0.08558,-1.77615,0.01559,-0.00094,1.96611,-0.04435,0.01079,2.02387,0.43814,0.46997,-0.29980,-0.59189,-4.54822,835.02154,807.19238,0.55142,14.14378,0.59189,-0.19318,6.52298,9.93242,9.73923
40.20600,0.84667,0.27512,-0.27687,0.21629,0.08558,-1.77615,0.01559,-0.00094,1.96611,-0.04435,0.01079,2.02387,0.43814,0.46997,-0.29980,-0.59189,-4.54822,835.02154,807.19238,0.55142,14.14447,0.58369,-0.19159,6.52298,9.93242,9.74082
40.20700,1.03006,0.06508,-0.19709,0.21972,0.08719,-1.77724,0.02387,-0.01047,1.96611,-0.04235,0.01108,2.00605,0.42584,0.48653,-0.29980,-0.58369,-4.61147,840.79681,807.19238,0.55608,14.14515,0.58369,-0.18980,6.52315,10.06448,9.87467
40.20800,1.03006,0.06508,-0.19709,0.21972,0.08719,-1.77724,0.02387,-0.01047,1.96611,-0.04235,0.01108,2.00605,0.42584,0.48653,-0.29980,-0.58369,-4.61147,840.79681,807.19238,0.55608,14.14582,0.58369,-0.18800,6.52315,10.06448,9.87647
40.20899,1.03006,0.06508,-0.19709,0.22699,0.09350,-1.77646,0.02387,-0.01047,1.96611,-0.04235,0.01108,2.00605,0.42584,0.48653,-0.29980,-0.58369,-4.61319,840.95361,807.19238,0.55615,14.14648,0.58369,-0.18611,6.52315,10.06448,9.87836
40.20999,1.03006,0.06508,-0.19709,0.22699,0.09350,-1.77646,0.02387,-0.01047,1.96611,-0.04235,0.01108,2.00605,0.42584,0.48653,-0.29980,-0.58369,-4.61319,840.95361,807.19238,0.55615,14.14714,0.58369,-0.18423,6.52315,10.06448,9.88024
40.21099,1.03006,0.06508,-0.19709,0.22450,0.09975,-1.77278,0.02387,-0.01047,1.96611,-0.04235,0.01108,2.00605,0.42584,0.48653,-0.29980,-0.58369,-4.61500,841.11865,807.19238,0.55624,14.14778,0.58369,-0.18224,6.52315,10.06448,9.88223
40.21200,1.03006,0.06508,-0.19709,0.22450,0.09975,-1.77278,0.02387,-0.01047,1.96611,-0.04235,0.01108,2.00605,0.42584,0.48653,-0.29980,-0.58369,-4.61500,841.11865,807.19238,0.55624,14.14841,0.58369,-0.18025,6.52315,10.06448,9.88422
40.21300,1.03006,0.06508,-0.19709,0.21858,0.10102,-1.76948,0.02387,-0.01047,1.96611,-0.04235,0.01108,2.00605,0.42584,0.48653,-0.29980,-0.58369,-4.61684,841.28601,809.37591,0.55633,14.14904,0.58369,-0.17830,6.52315,10.06448,9.88617
40.21400,1.03006,0.06508,-0.19709,0.21858,0.10102,-1.76948,0.02387,-0.01047,1.96611,-0.04235,0.01108,2.00605,0.42584,0.48653,-0.29980,-0.58369,-4.61684,841.28601,823.48431,0.55633,14.14965,0.58369,-0.17636,6.52315,10.06448,9.88811
40.21500,1.03006,0.06508,-0.19709,0.22329,0.10264,-1.76800,0.02387,-0.01047,1.96611,-0.04235,0.01108,2.00605,0.42584,0.48653,-0.29980,-0.58369,-4.61864,841.44995,823.48431,0.55641,14.15026,0.58369,-0.17445,6.52315,10.06448,9.89002
40.21599,1.03006,0.06508,-0.19709,0.22329,0.10264,-1.76800,0.02387,-0.01047,1.96611,-0.04235,0.01108,2.00605,0.42584,0.48653,-0.29980,-0.58369,-4.61864,841.44995,823.48431,0.55641,14.15086,0.58369,-0.17254,6.52315,10.06448,9.89193
40.21699,0.85373,0.24286,-0.10103,0.23105,0.10909,-1.76515,0.01829,-0.00461,1.96611,-0.04031,0.01160,1.98826,0.42584,0.48653,-0.29980,-0.58369,-4.61971,841.54754,823.48431,0.55644,14.15145,0.58369,-0.17053,6.52315,10.06285,9.89232
40.21799,0.85373,0.24286,-0.10103,0.23105,0.10909,-1.76515,0.01829,-0.00461,1.96611,-0.04031,0.01160,1.98826,0.42584,0.48653,-0.29980,-0.58369,-4.61971,841.54754,823.48431,0.55644,14.15203,0.58369,-0.16851,6.52315,10.06285,9.89433
40.21900,0.85373,0.24286,-0.10103,0.22725,0.11458,-1.75937,0.01829,-0.00461,1.96611,-0.04031,0.01160,1.98826,0.42584,0.48653,-0.29980,-0.58369,-4.62163,841.72290,832.65112,0.55654,14.15260,0.58369,-0.16640,6.52315,10.06285,9.89644
40.22000,0.85373,0.24286,-0.10103,0.22725,0.11458,-1.75937,0.01829,-0.00461,1.96611,-0.04031,0.01160,1.98826,0.42584,0.48653,-0.29980,-0.58369,-4.62163,841.72290,832.65112,0.55654,14.15316,0.58369,-0.16430,6.52315,10.06285,9.89854
40.22100,0.85373,0.24286,-0.10103,0.21941,0.11520,-1.75342,0.01829,-0.00461,1.96611,-0.04031,0.01160,1.98826,0.42584,0.48653,-0.29980,-0.58369,-4.62357,841.89898,832.65112,0.55664,14.15372,0.58369,-0.16226,6.52315,10.06285,9.90058
40.22200,0.85373,0.24286,-0.10103,0.21941,0.11520,-1.75342,0.01829,-0.00461,1.96611,-0.04031,0.01160,1.98826,0.42584,0.48653,-0.29980,-0.58369,-4.62357,841.89898,824.24047,0.55664,14.15427,0.58369,-0.16023,6.52315,10.06285,9.90262
40.22299,0.85373,0.24286,-0.10103,0.22138,0.11732,-1.74821,0.01829,-0.00461,1.96611,-0.04031,0.01160,1.98826,0.42584,0.48653,-0.29980,-0.58369,-4.62545,842.06982,832.65112,0.55674,14.15481,0.58369,-0.15824,6.52315,10.06285,9.90460
40.22399,0.85373,0.24286,-0.10103,0.22138,0.11732,-1.74821,0.01829,-0.00461,1.96611,-0.04031,0.01160,1.98826,0.42584,0.48653,-0.29980,-0.58369,-4.62545,842.06982,824.24047,0.55674,14.15534,0.58369,-0.15626,6.52315,10.06285,9.90658
40.22499,0.85373,0.24286,-0.10103,0.22591,0.12430,-1.74096,0.01829,-0.00461,1.96611,-0.04031,0.01160,1.98826,0.42584,0.48653,-0.29980,-0.58369,-4.62733,842.24102,817.48443,0.55684,14.15586,0.58369,-0.15421,6.52315,10.06285,9.90863
40.22600,0.85373,0.24286,-0.10103,0.22591,0.12430,-1.74096,0.01829,-0.00461,1.96611,-0.04031,0.01160,1.98826,0.42584,0.48653,-0.29980,-0.58369,-4.62733,842.24102,814.51715,0.55684,14.15638,0.57529,-0.15217,6.52315,10.06285,9.91067
40.22700,0.91357,0.34623,-0.00979,0.22209,0.12904,-1.73157,0.02062,0.00253,1.96611,-0.03826,0.01237,1.97072,0.41324,0.49955,-0.29980,-0.57529,-4.68338,847.31445,817.48443,0.56093,14.15688,0.57529,-0.14990,6.52334,10.17856,10.02866
40.22800,0.91357,0.34623,-0.00979,0.22209,0.12904,-1.73157,0.02062,0.00253,1.96611,-0.03826,0.01237,1.97072,0.41324,0.49955,-0.29980,-0.57529,-4.68338,847.31445,817.48443,0.56093,14.15738,0.57529,-0.14763,6.52334,10.17856,10.03092
40.22900,0.91357,0.34623,-0.00979,0.21959,0.12804,-1.72368,0.02062,0.00253,1.96611,-0.03826,0.01237,1.97072,0.41324,0.49955,-0.29980,-0.57529,-4.68541,847.49841,819.72406,0.56104,14.15788,0.57529,-0.14555,6.52334,10.17856,10.03301
40.22999,0.91357,0.34623,-0.00979,0.21959,0.12804,-1.72368,0.02062,0.00253,1.96611,-0.03826,0.01237,1.97072,0.41324,0.49955,-0.29980,-0.57529,-4.68541,847.49841,819.72406,0.56104,14.15836,0.57529,-0.14346,6.52334,10.17856,10.03510
40.23099,0.91357,0.34623,-0.00979,0.22766,0.12793,-1.71780,0.02062,0.00253,1.96611,-0.03826,0.01237,1.97072,0.41324,0.49955,-0.29980,-0.57529,-4.68729,847.66778,819.72406,0.56114,14.15884,0.57529,-0.14154,6.52334,10.17856,10.03702
40.23199,0.91357,0.34623,-0.00979,0.22766,0.12793,-1.71780,0.02062,0.00253,1.96611,-0.03826,0.01237,1.97072,0.41324,0.49955,-0.29980,-0.57529,-4.68729,847.66778,819.72406,0.56114,14.15930,0.57529,-0.13961,6.52334,10.17856,10.03894
40.23300,0.91357,0.34623,-0.00979,0.23342,0.13150,-1.71040,0.02062,0.00253,1.96611,-0.03826,0.01237,1.97072,0.41324,0.49955,-0.29980,-0.57529,-4.68905,847.82739,819.72406,0.56123,14.15977,0.57529,-0.13776,6.52334,10.17856,10.04080
40.23400,0.91357,0.34623,-0.00979,0.23342,0.13150,-1.71040,0.02062,0.00253,1.96611,-0.03826,0.01237,1.97072,0.41324,0.49955,-0.29980,-0.57529,-4.68905,847.82739,819.72406,0.56123,14.16022,0.57529,-0.13590,6.52334,10.17856,10.04266
40.23500,0.91357,0.34623,-0.00979,0.22659,0.13255,-1.70064,0.02062,0.00253,1.96611,-0.03826,0.01237,1.97072,0.41324,0.49955,-0.29980,-0.57529,-4.69072,847.97802,819.72406,0.56132,14.16066,0.57529,-0.13419,6.52334,10.17856,10.04437
40.23600,0.91357,0.34623,-0.00979,0.22659,0.13255,-1.70064,0.02062,0.00253,1.96611,-0.03826,0.01237,1.97072,0.41324,0.49955,-0.29980,-0.57529,-4.69072,847.97802,819.72406,0.56132,14.16110,0.56669,-0.13248,6.52334,10.17856,10.04608
40.23699,1.00726,0.03366,0.06396,0.22038,0.12970,-1.69076,0.02671,-0.00973,1.96611,-0.03620,0.01330,1.95357,0.40034,0.51051,-0.29980,-0.56669,-4.74335,852.70819,819.72406,0.56514,14.16153,0.56669,-0.13080,6.52356,10.28788,10.15708
40.23799,1.00726,0.03366,0.06396,0.22038,0.12970,-1.69076,0.02671,-0.00973,1.96611,-0.03620,0.01330,1.95357,0.40034,0.51051,-0.29980,-0.56669,-4.74335,852.70819,819.72406,0.56514,14.16195,0.56669,-0.12912,6.52356,10.28788,10.15876
40.23899,1.00726,0.03366,0.06396,0.22564,0.12954,-1.68024,0.02671,-0.00973,1.96611,-0.03620,0.01330,1.95357,0.40034,0.51051,-0.29980,-0.56669,-4.74486,852.84350,820.47338,0.56521,14.16237,0.56669,-0.12757,6.52356,10.28788,10.16030
40.24000,1.00726,0.03366,0.06396,0.22564,0.12954,-1.68024,0.02671,-0.00973,1.96611,-0.03620,0.01330,1.95357,0.40034,0.51051,-0.29980,-0.56669,-4.74486,852.84350,819.72406,0.56521,14.16277,0.56669,-0.12603,6.52356,10.28788,10.16185
40.24100,1.00726,0.03366,0.06396,0.23168,0.13247,-1.66662,0.02671,-0.00973,1.96611,-0.03620,0.01330,1.95357,0.40034,0.51051,-0.29980,-0.56669,-4.74630,852.97326,819.72406,0.56529,14.16316,0.56669,-0.12448,6.52356,10.28788,10.16340
40.24200,1.00726,0.03366,0.06396,0.23168,0.13247,-1.66662,0.02671,-0.00973,1.96611,-0.03620,0.01330,1.95357,0.40034,0.51051,-0.29980,-0.56669,-4.74630,852.97326,819.72406,0.56529,14.16355,0.56669,-0.12293,6.52356,10.28788,10.16494
40.24300,1.00726,0.03366,0.06396,0.23114,0.13181,-1.65118,0.02671,-0.00973,1.96611,-0.03620,0.01330,1.95357,0.40034,0.51051,-0.29980,-0.56669,-4.74770,853.09881,819.72406,0.56536,14.16392,0.56669,-0.12149,6.52356,10.28788,10.16639
40.24399,1.00726,0.03366,0.06396,0.23114,0.13181,-1.65118,0.02671,-0.00973,1.96611,-0.03620,0.01330,1.95357,0.40034,0.51051,-0.29980,-0.56669,-4.74770,853.09881,820.47338,0.56536,14.16429,0.56669,-0.12004,6.52356,10.28788,10.16784
40.24499,1.00726,0.03366,0.06396,0.23428,0.12837,-1.63700,0.02671,-0.00973,1.96611,-0.03620,0.01330,1.95357,0.40034,0.51051,-0.29980,-0.56669,-4.74896,853.21166,820.47338,0.56542,14.16465,0.56669,-0.11880,6.52356,10.28788,10.16908
40.24599,1.00726,0.03366,0.06396,0.23428,0.12837,-1.63700,0.02671,-0.00973,1.96611,-0.03620,0.01330,1.95357,0.40034,0.51051,-0.29980,-0.56669,-4.74896,853.21166,817.48443,0.56542,14.16500,0.56099,-0.11756,6.52356,10.28788,10.17032
40.24700,0.89043,0.11100,0.14955,0.24405,0.12891,-1.62319,0.02418,-0.00943,1.96611,-0.03406,0.01428,1.93697,0.39179,0.51679,-0.29980,-0.56099,-4.78101,856.07525,817.48443,0.56773,14.16534,0.56099,-0.11627,6.52372,10.35398,10.23770
40.24800,0.89043,0.11100,0.14955,0.24405,0.12891,-1.62319,0.02418,-0.00943,1.96611,-0.03406,0.01428,1.93697,0.39179,0.51679,-0.29980,-0.56099,-4.78101,856.07525,820.47338,0.56773,14.16567,0.56099,-0.11499,6.52372,10.35398,10.23899
40.24900,0.89043,0.11100,0.14955,0.24846,0.13154,-1.60723,0.02418,-0.00943,1.96611,-0.03406,0.01428,1.93697,0.39179,0.51679,-0.29980,-0.56099,-4.78220,856.18200,822.72949,0.56779,14.16599,0.56099,-0.11372,6.52372,10.35398,10.24026
40.25000,0.89043,0.11100,0.14955,0.24846,0.13154,-1.60723,0.02418,-0.00943,1.96611,-0.03406,0.01428,1.93697,0.39179,0.51679,-0.29980,-0.56099,-4.78220,856.18200,832.65112,0.56779,14.16630,0.56099,-0.11245,6.52372,10.35398,10.24153
40.25099,0.89043,0.11100,0.14955,0.24760,0.12967,-1.59020,0.02418,-0.00943,1.96611,-0.03406,0.01428,1.93697,0.39179,0.51679,-0.29980,-0.56099,-4.78331,856.28143,832.65112,0.56784,14.16661,0.56099,-0.11134,6.52372,10.35398,10.24264
40.25199,0.89043,0.11100,0.14955,0.24760,0.12967,-1.59020,0.02418,-0.00943,1.96611,-0.03406,0.01428,1.93697,0.39179,0.51679,-0.29980,-0.56099,-4.78331,856.28143,822.72949,0.56784,14.16690,0.56099,-0.11023,6.52372,10.35398,10.24375
40.25299,0.89043,0.11100,0.14955,0.25577,0.12683,-1.57347,0.02418,-0.00943,1.96611,-0.03406,0.01428,1.93697,0.39179,0.51679,-0.29980,-0.56099,-4.78425,856.36578,822.72949,0.56789,14.16719,0.56099,-0.10932,6.52372,10.35398,10.24466
40.25400,0.89043,0.11100,0.14955,0.25577,0.12683,-1.57347,0.02418,-0.00943,1.96611,-0.03406,0.01428,1.93697,0.39179,0.51679,-0.29980,-0.56099,-4.78425,856.36578,822.72949,0.56789,14.16747,0.56099,-0.10841,6.52372,10.35398,10.24557
40.25500,0.89043,0.11100,0.14955,0.27096,0.13055,-1.55420,0.02418,-0.00943,1.96611,-0.03406,0.01428,1.93697,0.39179,0.51679,-0.29980,-0.56099,-4.78512,856.44342,816.74053,0.56793,14.16773,0.56099,-0.10746,6.52372,10.35398,10.24651
40.25600,0.89043,0.11100,0.14955,0.27096,0.13055,-1.55420,0.02418,-0.00943,1.96611,-0.03406,0.01428,1.93697,0.39179,0.51679,-0.29980,-0.56099,-4.78512,856.44342,816.74053,0.56793,14.16799,0.56099,-0.10652,6.52372,10.35398,10.24746
40.25699,0.81175,0.19720,0.23099,0.27624,0.13697,-1.53047,0.02072,-0.00579,1.96611,-0.03160,0.01529,1.92117,0.39179,0.51679,-0.29980,-0.56099,-4.78557,856.48394,822.72949,0.56794,14.16824,0.56099,-0.10540,6.52372,10.35289,10.24748
40.25799,0.81175,0.19720,0.23099,0.27624,0.13697,-1.53047,0.02072,-0.00579,1.96611,-0.03160,0.01529,1.92117,0.39179,0.51679,-0.29980,-0.56099,-4.78557,856.48394,827.27917,0.56794,14.16847,0.56099,-0.10428,6.52372,10.35289,10.24860
40.25899,0.81175,0.19720,0.23099,0.27281,0.13818,-1.50616,0.02072,-0.00579,1.96611,-0.03160,0.01529,1.92117,0.39179,0.51679,-0.29980,-0.56099,-4.78663,856.57885,827.27917,0.56800,14.16870,0.56099,-0.10313,6.52372,10.35289,10.24975
40.25999,0.81175,0.19720,0.23099,0.27281,0.13818,-1.50616,0.02072,-0.00579,1.96611,-0.03160,0.01529,1.92117,0.39179,0.51679,-0.29980,-0.56099,-4.78663,856.57885,825.75701,0.56800,14.16892,0.56099,-0.10197,6.52372,10.35289,10.25091
40.26100,0.81175,0.19720,0.23099,0.27725,0.13709,-1.48518,0.02072,-0.00579,1.96611,-0.03160,0.01529,1.92117,0.39179,0.51679,-0.29980,-0.56099,-4.78770,856.67474,823.48431,0.56806,14.16913,0.56099,-0.10083,6.52372,10.35289,10.25205
40.26200,0.81175,0.19720,0.23099,0.27725,0.13709,-1.48518,0.02072,-0.00579,1.96611,-0.03160,0.01529,1.92117,0.39179,0.51679,-0.29980,-0.56099,-4.78770,856.67474,823.48431,0.56806,14.16933,0.56099,-0.09970,6.52372,10.35289,10.25319
40.26300,0.81175,0.19720,0.23099,0.28897,0.13977,-1.46572,0.02072,-0.00579,1.96611,-0.03160,0.01529,1.92117,0.39179,0.51679,-0.29980,-0.56099,-4.78881,856.77368,825.75701,0.56813,14.16953,0.56099,-0.09846,6.52372,10.35289,10.25442
40.26399,0.81175,0.19720,0.23099,0.28897,0.13977,-1.46572,0.02072,-0.00579,1.96611,-0.03160,0.01529,1.92117,0.39179,0.51679,-0.29980,-0.56099,-4.78881,856.77368,825.75701,0.56813,14.16971,0.56099,-0.09723,6.52372,10.35289,10.25565
40.26499,0.81175,0.19720,0.23099,0.29480,0.14277,-1.44504,0.02072,-0.00579,1.96611,-0.03160,0.01529,1.92117,0.39179,0.51679,-0.29980,-0.56099,-4.79000,856.87976,824.24047,0.56820,14.16989,0.56099,-0.09593,6.52372,10.35289,10.25695
40.26599,0.81175,0.19720,0.23099,0.29480,0.14277,-1.44504,0.02072,-0.00579,1.96611,-0.03160,0.01529,1.92117,0.39179,0.51679,-0.29980,-0.56099,-4.79000,856.87976,824.24047,0.56820,14.17005,0.55220,-0.09462,6.52372,10.35289,10.25826
40.26699,0.92872,0.05061,0.29962,0.29831,0.14225,-1.42393,0.02618,-0.01183,1.96611,-0.02876,0.01649,1.90649,0.37859,0.52408,-0.29980,-0.55220,-4.83521,860.89642,824.24047,0.57146,14.17021,0.55220,-0.09321,6.52399,10.44698,10.35377
40.26800,0.92872,0.05061,0.29962,0.29831,0.14225,-1.42393,0.02618,-0.01183,1.96611,-0.02876,0.01649,1.90649,0.37859,0.52408,-0.29980,-0.55220,-4.83521,860.89642,824.24047,0.57146,14.17036,0.55220,-0.09179,6.52399,10.44698,10.35519
40.26900,0.92872,0.05061,0.29962,0.31075,0.14376,-1.40257,0.02618,-0.01183,1.96611,-0.02876,0.01649,1.90649,0.37859,0.52408,-0.29980,-0.55220,-4.83651,861.01232,824.24047,0.57154,14.17049,0.55220,-0.09042,6.52399,10.44698,10.35655
40.27000,0.92872,0.05061,0.29962,0.31075,0.14376,-1.40257,0.02618,-0.01183,1.96611,-0.02876,0.01649,1.90649,0.37859,0.52408,-0.29980,-0.55220,-4.83651,861.01232,824.24047,0.57154,14.17062,0.55220,-0.08905,6.52399,10.44698,10.35792
40.27099,0.92872,0.05061,0.29962,0.32488,0.15073,-1.37852,0.02618,-0.01183,1.96611,-0.02876,0.01649,1.90649,0.37859,0.52408,-0.29980,-0.55220,-4.83783,861.12988,824.24047,0.57162,14.17073,0.55220,-0.08759,6.52399,10.44698,10.35938
40.27199,0.92872,0.05061,0.29962,0.32488,0.15073,-1.37852,0.02618,-0.01183,1.96611,-0.02876,0.01649,1.90649,0.37859,0.52408,-0.29980,-0.55220,-4.83783,861.12988,825.75701,0.57162,14.17083,0.55220,-0.08613,6.52399,10.44698,10.36084
40.27299,0.92872,0.05061,0.29962,0.32905,0.15692,-1.35214,0.02618,-0.01183,1.96611,-0.02876,0.01649,1.90649,0.37859,0.52408,-0.29980,-0.55220,-4.83921,861.25280,825.75701,0.57172,14.17092,0.55220,-0.08463,6.52399,10.44698,10.36234
40.27399,0.92872,0.05061,0.29962,0.32905,0.15692,-1.35214,0.02618,-0.01183,1.96611,-0.02876,0.01649,1.90649,0.37859,0.52408,-0.29980,-0.55220,-4.83921,861.25280,825.75701,0.57172,14.17101,0.55220,-0.08314,6.52399,10.44698,10.36384
40.27500,0.92872,0.05061,0.29962,0.33102,0.15962,-1.32751,0.02618,-0.01183,1.96611,-0.02876,0.01649,1.90649,0.37859,0.52408,-0.29980,-0.55220,-4.84056,861.37292,825.75701,0.57181,14.17108,0.55220,-0.08174,6.52399,10.44698,10.36523
40.27600,0.92872,0.05061,0.29962,0.33102,0.15962,-1.32751,0.02618,-0.01183,1.96611,-0.02876,0.01649,1.90649,0.37859,0.52408,-0.29980,-0.55220,-4.84056,861.37292,825.75701,0.57181,14.17113,0.55220,-0.08035,6.52399,10.44698,10.36662
40.27700,0.80379,0.15830,0.37004,0.34041,0.16491,-1.30560,0.02258,-0.00797,1.96611,-0.02552,0.01790,1.89292,0.37859,0.52408,-0.29980,-0.55220,-4.84122,861.43182,827.27917,0.57185,14.17118,0.55220,-0.07900,6.52399,10.44566,10.36665
40.27799,0.80379,0.15830,0.37004,0.34041,0.16491,-1.30560,0.02258,-0.00797,1.96611,-0.02552,0.01790,1.89292,0.37859,0.52408,-0.29980,-0.55220,-4.84122,861.43182,828.80694,0.57185,14.17122,0.55220,-0.07766,6.52399,10.44566,10.36800
40.27899,0.80379,0.15830,0.37004,0.34870,0.17324,-1.28351,0.02258,-0.00797,1.96611,-0.02552,0.01790,1.89292,0.37859,0.52408,-0.29980,-0.55220,-4.84250,861.54559,828.80694,0.57194,14.17124,0.55220,-0.07627,6.52399,10.44566,10.36939
40.27999,0.80379,0.15830,0.37004,0.34870,0.17324,-1.28351,0.02258,-0.00797,1.96611,-0.02552,0.01790,1.89292,0.37859,0.52408,-0.29980,-0.55220,-4.84250,861.54559,827.27917,0.57194,14.17126,0.55220,-0.07487,6.52399,10.44566,10.37078
40.28099,0.80379,0.15830,0.37004,0.34999,0.17705,-1.26074,0.02258,-0.00797,1.96611,-0.02552,0.01790,1.89292,0.37859,0.52408,-0.29980,-0.55220,-4.84376,861.65783,826.51739,0.57203,14.17126,0.55220,-0.07357,6.52399,10.44566,10.37209
40.28200,0.80379,0.15830,0.37004,0.34999,0.17705,-1.26074,0.02258,-0.00797,1.96611,-0.02552,0.01790,1.89292,0.37859,0.52408,-0.29980,-0.55220,-4.84376,861.65783,827.27917,0.57203,14.17125,0.55220,-0.07226,6.52399,10.44566,10.37340
40.28300,0.80379,0.15830,0.37004,0.35609,0.17674,-1.23907,0.02258,-0.00797,1.96611,-0.02552,0.01790,1.89292,0.37859,0.52408,-0.29980,-0.55220,-4.84488,861.75720,827.27917,0.57212,14.17123,0.55220,-0.07117,6.52399,10.44566,10.37448
40.28400,0.80379,0.15830,0.37004,0.35609,0.17674,-1.23907,0.02258,-0.00797,1.96611,-0.02552,0.01790,1.89292,0.37859,0.52408,-0.29980,-0.55220,-4.84488,861.75720,830.34033,0.57212,14.17120,0.55220,-0.07008,6.52399,10.44566,10.37557
40.28499,0.80379,0.15830,0.37004,0.37091,0.18053,-1.21676,0.02258,-0.00797,1.96611,-0.02552,0.01790,1.89292,0.37859,0.52408,-0.29980,-0.55220,-4.84585,861.84307,834.97479,0.57219,14.17115,0.55220,-0.06910,6.52399,10.44566,10.37655
40.28599,0.80379,0.15830,0.37004,0.37091,0.18053,-1.21676,0.02258,-0.00797,1.96611,-0.02552,0.01790,1.89292,0.37859,0.52408,-0.29980,-0.55220,-4.84585,861.84307,834.97479,0.57219,14.17110,0.54340,-0.06812,6.52399,10.44566,10.37753
40.28699,0.81037,0.11374,0.43051,0.37929,0.18819,-1.19066,0.02316,-0.00879,1.96611,-0.02186,0.01966,1.88051,0.36539,0.52417,-0.29980,-0.54340,-4.87486,864.39953,834.97479,0.57427,14.17103,0.54340,-0.06701,6.52429,10.50569,10.43868
40.28799,0.81037,0.11374,0.43051,0.37929,0.18819,-1.19066,0.02316,-0.00879,1.96611,-0.02186,0.01966,1.88051,0.36539,0.52417,-0.29980,-0.54340,-4.87486,864.39953,833.42425,0.57427,14.17095,0.54340,-0.06589,6.52429,10.50569,10.43980
40.28900,0.81037,0.11374,0.43051,0.37631,0.19274,-1.16246,0.02316,-0.00879,1.96611,-0.02186,0.01966,1.88051,0.36539,0.52417,-0.29980,-0.54340,-4.87587,864.48895,833.42425,0.57435,14.17086,0.54340,-0.06485,6.52429,10.50569,10.44084
40.29000,0.81037,0.11374,0.43051,0.37631,0.19274,-1.16246,0.02316,-0.00879,1.96611,-0.02186,0.01966,1.88051,0.36539,0.52417,-0.29980,-0.54340,-4.87587,864.48895,833.42425,0.57435,14.17075,0.54340,-0.06380,6.52429,10.50569,10.44188
40.29100,0.81037,0.11374,0.43051,0.37605,0.19551,-1.13598,0.02316,-0.00879,1.96611,-0.02186,0.01966,1.88051,0.36539,0.52417,-0.29980,-0.54340,-4.87679,864.57086,834.97479,0.57443,14.17063,0.54340,-0.06287,6.52429,10.50569,10.44282
40.29199,0.81037,0.11374,0.43051,0.37605,0.19551,-1.13598,0.02316,-0.00879,1.96611,-0.02186,0.01966,1.88051,0.36539,0.52417,-0.29980,-0.54340,-4.87679,864.57086,834.97479,0.57443,14.17051,0.54340,-0.06193,6.52429,10.50569,10.44375
40.29299,0.81037,0.11374,0.43051,0.38250,0.20212,-1.11111,0.02316,-0.00879,1.96611,-0.02186,0.01966,1.88051,0.36539,0.52417,-0.29980,-0.54340,-4.87769,864.65026,833.42425,0.57450,14.17036,0.54340,-0.06095,6.52429,10.50569,10.44474
40.29399,0.81037,0.11374,0.43051,0.38250,0.20212,-1.11111,0.02316,-0.00879,1.96611,-0.02186,0.01966,1.88051,0.36539,0.52417,-0.29980,-0.54340,-4.87769,864.65026,833.42425,0.57450,14.17021,0.54340,-0.05997,6.52429,10.50569,10.44572
40.29499,0.81037,0.11374,0.43051,0.38467,0.20918,-1.08611,0.02316,-0.00879,1.96611,-0.02186,0.01966,1.88051,0.36539,0.52417,-0.29980,-0.54340,-4.87866,864.73590,833.42425,0.57459,14.17005,0.54340,-0.05888,6.52429,10.50569,10.44681
40.29600,0.81037,0.11374,0.43051,0.38467,0.20918,-1.08611,0.02316,-0.00879,1.96611,-0.02186,0.01966,1.88051,0.36539,0.52417,-0.29980,-0.54340,-4.87866,864.73590,831.10913,0.57459,14.16987,0.53460,-0.05780,6.52429,10.50569,10.44789
40.29700,0.79398,-0.01365,0.48356,0.38298,0.21155,-1.06179,0.02353,-0.01486,1.96611,-0.01797,0.02174,1.86934,0.35219,0.53071,-0.29980,-0.53460,-4.92165,868.51531,831.10913,0.57768,14.16968,0.53460,-0.05656,6.52463,10.59542,10.53886
40.29800,0.79398,-0.01365,0.48356,0.38298,0.21155,-1.06179,0.02353,-0.01486,1.96611,-0.01797,0.02174,1.86934,0.35219,0.53071,-0.29980,-0.53460,-4.92165,868.51531,831.10913,0.57768,14.16948,0.53460,-0.05532,6.52463,10.59542,10.54010
40.29899,0.79398,-0.01365,0.48356,0.38731,0.21403,-1.03797,0.02353,-0.01486,1.96611,-0.01797,0.02174,1.86934,0.35219,0.53071,-0.29980,-0.53460,-4.92280,868.61688,838.09326,0.57778,14.16926,0.53460,-0.05409,6.52463,10.59542,10.54133
40.29999,0.79398,-0.01365,0.48356,0.38731,0.21403,-1.03797,0.02353,-0.01486,1.96611,-0.01797,0.02174,1.86934,0.35219,0.53071,-0.29980,-0.53460,-4.92280,868.61688,838.09326,0.57778,14.16904,0.53460,-0.05287,6.52463,10.59542,10.54255
40.30099,0.79398,-0.01365,0.48356,0.39237,0.22116,-1.01111,0.02353,-0.01486,1.96611,-0.01797,0.02174,1.86934,0.35219,0.53071,-0.29980,-0.53460,-4.92400,868.72314,831.10913,0.57788,14.16880,0.53460,-0.05151,6.52463,10.59542,10.54391
40.30199,0.79398,-0.01365,0.48356,0.39237,0.22116,-1.01111,0.02353,-0.01486,1.96611,-0.01797,0.02174,1.86934,0.35219,0.53071,-0.29980,-0.53460,-4.92400,868.72314,838.09326,0.57788,14.16856,0.53460,-0.05016,6.52463,10.59542,10.54526
40.30300,0.79398,-0.01365,0.48356,0.38739,0.22670,-0.98019,0.02353,-0.01486,1.96611,-0.01797,0.02174,1.86934,0.35219,0.53071,-0.29980,-0.53460,-4.92531,868.83825,838.09326,0.57800,14.16830,0.53460,-0.04872,6.52463,10.59542,10.54670
40.30400,0.79398,-0.01365,0.48356,0.38739,0.22670,-0.98019,0.02353,-0.01486,1.96611,-0.01797,0.02174,1.86934,0.35219,0.53071,-0.29980,-0.53460,-4.92531,868.83825,838.09326,0.57800,14.16803,0.53460,-0.04728,6.52463,10.59542,10.54814
40.30500,0.79398,-0.01365,0.48356,0.38053,0.22618,-0.94911,0.02353,-0.01486,1.96611,-0.01797,0.02174,1.86934,0.35219,0.53071,-0.29980,-0.53460,-4.92662,868.95404,838.09326,0.57811,14.16775,0.53460,-0.04591,6.52463,10.59542,10.54951
40.30599,0.79398,-0.01365,0.48356,0.38053,0.22618,-0.94911,0.02353,-0.01486,1.96611,-0.01797,0.02174,1.86934,0.35219,0.53071,-0.29980,-0.53460,-4.92662,868.95404,831.10913,0.57811,14.16745,0.53460,-0.04454,6.52463,10.59542,10.55088
40.30699,0.73495,0.10184,0.53443,0.38313,0.22603,-0.92017,0.02191,-0.01082,1.96611,-0.01400,0.02411,1.85949,0.35219,0.53071,-0.29980,-0.53460,-4.92743,869.02569,838.09326,0.57820,14.16715,0.53460,-0.04322,6.52463,10.59448,10.55125
40.30799,0.73495,0.10184,0.53443,0.38313,0.22603,-0.92017,0.02191,-0.01082,1.96611,-0.01400,0.02411,1.85949,0.35219,0.53071,-0.29980,-0.53460,-4.92743,869.02569,838.09326,0.57820,14.16684,0.53460,-0.04191,6.52463,10.59448,10.55256
40.30899,0.73495,0.10184,0.53443,0.38613,0.23012,-0.89165,0.02191,-0.01082,1.96611,-0.01400,0.02411,1.85949,0.35219,0.53071,-0.29980,-0.53460,-4.92867,869.13464,843.60705,0.57831,14.16651,0.53460,-0.04058,6.52463,10.59448,10.55390
40.31000,0.73495,0.10184,0.53443,0.38613,0.23012,-0.89165,0.02191,-0.01082,1.96611,-0.01400,0.02411,1.85949,0.35219,0.53071,-0.29980,-0.53460,-4.92867,869.13464,833.42425,0.57831,14.16617,0.53460,-0.03924,6.52463,10.59448,10.55523
40.31100,0.73495,0.10184,0.53443,0.37956,0.23292,-0.86339,0.02191,-0.01082,1.96611,-0.01400,0.02411,1.85949,0.35219,0.53071,-0.29980,-0.53460,-4.92988,869.24163,833.42425,0.57843,14.16582,0.53460,-0.03798,6.52463,10.59448,10.55650
40.31200,0.73495,0.10184,0.53443,0.37956,0.23292,-0.86339,0.02191,-0.01082,1.96611,-0.01400,0.02411,1.85949,0.35219,0.53071,-0.29980,-0.53460,-4.92988,869.24163,835.75225,0.57843,14.16546,0.53460,-0.03672,6.52463,10.59448,10.55776
40.31299,0.73495,0.10184,0.53443,0.37368,0.23283,-0.83749,0.02191,-0.01082,1.96611,-0.01400,0.02411,1.85949,0.35219,0.53071,-0.29980,-0.53460,-4.93098,869.33819,835.75225,0.57854,14.16509,0.53460,-0.03563,6.52463,10.59448,10.55884
40.31399,0.73495,0.10184,0.53443,0.37368,0.23283,-0.83749,0.02191,-0.01082,1.96611,-0.01400,0.02411,1.85949,0.35219,0.53071,-0.29980,-0.53460,-4.93098,869.33819,835.75225,0.57854,14.16471,0.53460,-0.03455,6.52463,10.59448,10.55993
40.31499,0.73495,0.10184,0.53443,0.37644,0.23547,-0.81286,0.02191,-0.01082,1.96611,-0.01400,0.02411,1.85949,0.35219,0.53071,-0.29980,-0.53460,-4.93196,869.42456,835.75225,0.57864,14.16431,0.53460,-0.03354,6.52463,10.59448,10.56094
40.31600,0.73495,0.10184,0.53443,0.37644,0.23547,-0.81286,0.02191,-0.01082,1.96611,-0.01400,0.02411,1.85949,0.35219,0.53071,-0.29980,-0.53460,-4.93196,869.42456,843.60705,0.57864,14.16390,0.52570,-0.03252,6.52463,10.59448,10.56196
40.31700,0.78125,-0.02024,0.57467,0.37685,0.23991,-0.78641,0.02496,-0.01561,1.96611,-0.01013,0.02662,1.85110,0.33884,0.53244,-0.29980,-0.52570,-4.96536,872.33850,843.60705,0.58104,14.16348,0.52570,-0.03134,6.52500,10.66381,10.63247
40.31800,0.78125,-0.02024,0.57467,0.37685,0.23991,-0.78641,0.02496,-0.01561,1.96611,-0.01013,0.02662,1.85110,0.33884,0.53244,-0.29980,-0.52570,-4.96536,872.33850,843.60705,0.58104,14.16305,0.52570,-0.03016,6.52500,10.66381,10.63365
40.31900,0.78125,-0.02024,0.57467,0.36949,0.23996,-0.75909,0.02496,-0.01561,1.96611,-0.01013,0.02662,1.85110,0.33884,0.53244,-0.29980,-0.52570,-4.96642,872.43206,835.75225,0.58116,14.16261,0.52570,-0.02906,6.52500,10.66381,10.63475
40.31999,0.78125,-0.02024,0.57467,0.36949,0.23996,-0.75909,0.02496,-0.01561,1.96611,-0.01013,0.02662,1.85110,0.33884,0.53244,-0.29980,-0.52570,-4.96642,872.43206,849.99804,0.58116,14.16216,0.52570,-0.02796,6.52500,10.66381,10.63585
40.32099,0.78125,-0.02024,0.57467,0.36497,0.23847,-0.73382,0.02496,-0.01561,1.96611,-0.01013,0.02662,1.85110,0.33884,0.53244,-0.29980,-0.52570,-4.96739,872.51715,837.31140,0.58126,14.16169,0.52570,-0.02699,6.52500,10.66381,10.63682
40.32199,0.78125,-0.02024,0.57467,0.36497,0.23847,-0.73382,0.02496,-0.01561,1.96611,-0.01013,0.02662,1.85110,0.33884,0.53244,-0.29980,-0.52570,-4.96739,872.51715,846.79046,0.58126,14.16121,0.52570,-0.02601,6.52500,10.66381,10.63780
40.32300,0.78125,-0.02024,0.57467,0.36443,0.24222,-0.71005,0.02496,-0.01561,1.96611,-0.01013,0.02662,1.85110,0.33884,0.53244,-0.29980,-0.52570,-4.96832,872.59893,846.79046,0.58137,14.16073,0.52570,-0.02499,6.52500,10.66381,10.63881
40.32400,0.78125,-0.02024,0.57467,0.36443,0.24222,-0.71005,0.02496,-0.01561,1.96611,-0.01013,0.02662,1.85110,0.33884,0.53244,-0.29980,-0.52570,-4.96832,872.59893,846.79046,0.58137,14.16023,0.52570,-0.02397,6.52500,10.66381,10.63983
40.32500,0.78125,-0.02024,0.57467,0.35664,0.24708,-0.68638,0.02496,-0.01561,1.96611,-0.01013,0.02662,1.85110,0.33884,0.53244,-0.29980,-0.52570,-4.96934,872.68804,837.31140,0.58148,14.15972,0.52570,-0.02282,6.52500,10.66381,10.64099
40.32600,0.78125,-0.02024,0.57467,0.35664,0.24708,-0.68638,0.02496,-0.01561,1.96611,-0.01013,0.02662,1.85110,0.33884,0.53244,-0.29980,-0.52570,-4.96934,872.68804,846.79046,0.58148,14.15920,0.51979,-0.02166,6.52500,10.66381,10.64214
40.32699,0.65630,0.17325,0.61142,0.34467,0.24582,-0.66437,0.02084,-0.00654,1.96611,-0.00634,0.02929,1.84399,0.32999,0.53188,-0.29980,-0.51979,-4.98690,874.21038,837.31140,0.58277,14.15867,0.51979,-0.02041,6.52528,10.69901,10.67859
40.32799,0.65630,0.17325,0.61142,0.34467,0.24582,-0.66437,0.02084,-0.00654,1.96611,-0.00634,0.02929,1.84399,0.32999,0.53188,-0.29980,-0.51979,-4.98690,874.21038,833.42425,0.58277,14.15812,0.51979,-0.01916,6.52528,10.69901,10.67984
40.32899,0.65630,0.17325,0.61142,0.34156,0.24236,-0.64441,0.02084,-0.00654,1.96611,-0.00634,0.02929,1.84399,0.32999,0.53188,-0.29980,-0.51979,-4.98808,874.31329,834.97479,0.58290,14.15757,0.51979,-0.01790,6.52528,10.69901,10.68111
40.33000,0.65630,0.17325,0.61142,0.34156,0.24236,-0.64441,0.02084,-0.00654,1.96611,-0.00634,0.02929,1.84399,0.32999,0.53188,-0.29980,-0.51979,-4.98808,874.31329,834.97479,0.58290,14.15701,0.51979,-0.01663,6.52528,10.69901,10.68237
40.33100,0.65630,0.17325,0.61142,0.34294,0.24214,-0.62291,0.02084,-0.00654,1.96611,-0.00634,0.02929,1.84399,0.32999,0.53188,-0.29980,-0.51979,-4.98932,874.42199,834.97479,0.58303,14.15643,0.51979,-0.01524,6.52528,10.69901,10.68377
40.33200,0.65630,0.17325,0.61142,0.34294,0.24214,-0.62291,0.02084,-0.00654,1.96611,-0.00634,0.02929,1.84399,0.32999,0.53188,-0.29980,-0.51979,-4.98932,874.42199,834.97479,0.58303,14.15584,0.51979,-0.01385,6.52528,10.69901,10.68516
40.33300,0.65630,0.17325,0.61142,0.33654,0.24052,-0.59830,0.02084,-0.00654,1.96611,-0.00634,0.02929,1.84399,0.32999,0.53188,-0.29980,-0.51979,-4.99065,874.53894,844.40063,0.58318,14.15524,0.51979,-0.01238,6.52528,10.69901,10.68662
40.33399,0.65630,0.17325,0.61142,0.33654,0.24052,-0.59830,0.02084,-0.00654,1.96611,-0.00634,0.02929,1.84399,0.32999,0.53188,-0.29980,-0.51979,-4.99065,874.53894,844.40063,0.58318,14.15462,0.51979,-0.01092,6.52528,10.69901,10.68809
40.33499,0.65630,0.17325,0.61142,0.32824,0.23442,-0.57373,0.02084,-0.00654,1.96611,-0.00634,0.02929,1.84399,0.32999,0.53188,-0.29980,-0.51979,-4.99198,874.65521,850.80364,0.58332,14.15400,0.51979,-0.00954,6.52528,10.69901,10.68946
40.33599,0.65630,0.17325,0.61142,0.32824,0.23442,-0.57373,0.02084,-0.00654,1.96611,-0.00634,0.02929,1.84399,0.32999,0.53188,-0.29980,-0.51979,-4.99198,874.65521,850.80364,0.58332,14.15336,0.51099,-0.00816,6.52528,10.69901,10.69084
40.33700,0.61570,-0.14272,0.63988,0.32801,0.23035,-0.55091,0.01847,-0.01890,1.96611,-0.00285,0.03194,1.83799,0.31679,0.52605,-0.29980,-0.51099,-5.00932,876.14324,850.80364,0.58459,14.15271,0.51099,-0.00678,6.52573,10.73339,10.72660
40.33800,0.61570,-0.14272,0.63988,0.32801,0.23035,-0.55091,0.01847,-0.01890,1.96611,-0.00285,0.03194,1.83799,0.31679,0.52605,-0.29980,-0.51099,-5.00932,876.14324,850.80364,0.58459,14.15205,0.51099,-0.00540,6.52573,10.73339,10.72799
40.33900,0.61570,-0.14272,0.63988,0.32740,0.23049,-0.52788,0.01847,-0.01890,1.96611,-0.00285,0.03194,1.83799,0.31679,0.52605,-0.29980,-0.51099,-5.01063,876.25762,851.61090,0.58474,14.15138,0.51099,-0.00398,6.52573,10.73339,10.72941
40.34000,0.61570,-0.14272,0.63988,0.32740,0.23049,-0.52788,0.01847,-0.01890,1.96611,-0.00285,0.03194,1.83799,0.31679,0.52605,-0.29980,-0.51099,-5.01063,876.25762,851.61090,0.58474,14.15070,0.51099,-0.00256,6.52573,10.73339,10.73082
40.34099,0.61570,-0.14272,0.63988,0.31825,0.22773,-0.50445,0.01847,-0.01890,1.96611,-0.00285,0.03194,1.83799,0.31679,0.52605,-0.29980,-0.51099,-5.01193,876.37097,850.80364,0.58489,14.15000,0.51099,-0.00120,6.52573,10.73339,10.73218
40.34199,0.61570,-0.14272,0.63988,0.31825,0.22773,-0.50445,0.01847,-0.01890,1.96611,-0.00285,0.03194,1.83799,0.31679,0.52605,-0.29980,-0.51099,-5.01193,876.37097,850.80364,0.58489,14.14930,0.51099,0.00014,6.52573,10.73339,10.73354
40.34299,0.61570,-0.14272,0.63988,0.31073,0.22073,-0.48278,0.01847,-0.01890,1.96611,-0.00285,0.03194,1.83799,0.31679,0.52605,-0.29980,-0.51099,-5.01312,876.47515,849.99804,0.58503,14.14858,0.51099,0.00134,6.52573,10.73339,10.73473
40.34400,0.61570,-0.14272,0.63988,0.31073,0.22073,-0.48278,0.01847,-0.01890,1.96611,-0.00285,0.03194,1.83799,0.31679,0.52605,-0.29980,-0.51099,-5.01312,876.47515,848.39117,0.58503,14.14786,0.51099,0.00253,6.52573,10.73339,10.73593
40.34500,0.61570,-0.14272,0.63988,0.31136,0.21573,-0.46213,0.01847,-0.01890,1.96611,-0.00285,0.03194,1.83799,0.31679,0.52605,-0.29980,-0.51099,-5.01421,876.57055,848.39117,0.58517,14.14713,0.51099,0.00367,6.52573,10.73339,10.73707
40.34600,0.61570,-0.14272,0.63988,0.31136,0.21573,-0.46213,0.01847,-0.01890,1.96611,-0.00285,0.03194,1.83799,0.31679,0.52605,-0.29980,-0.51099,-5.01421,876.57055,848.39117,0.58517,14.14638,0.51099,0.00482,6.52573,10.73339,10.73821
40.34700,0.64120,0.01161,0.66449,0.31060,0.21201,-0.43986,0.01944,-0.01443,1.96611,0.00057,0.03445,1.83313,0.31679,0.52605,-0.29980,-0.51099,-5.01500,876.63995,847.59008,0.58529,14.14562,0.51099,0.00598,6.52573,10.73279,10.73877
40.34799,0.64120,0.01161,0.66449,0.31060,0.21201,-0.43986,0.01944,-0.01443,1.96611,0.00057,0.03445,1.83313,0.31679,0.52605,-0.29980,-0.51099,-5.01500,876.63995,847.59008,0.58529,14.14486,0.51099,0.00714,6.52573,10.73279,10.73993
40.34899,0.64120,0.01161,0.66449,0.30630,0.20465,-0.41618,0.01944,-0.01443,1.96611,0.00057,0.03445,1.83313,0.31679,0.52605,-0.29980,-0.51099,-5.01603,876.72937,847.59008,0.58542,14.14408,0.51099,0.00817,6.52573,10.73279,10.74096
40.34999,0.64120,0.01161,0.66449,0.30630,0.20465,-0.41618,0.01944,-0.01443,1.96611,0.00057,0.03445,1.83313,0.31679,0.52605,-0.29980,-0.51099,-5.01603,876.72937,846.79046,0.58542,14.14329,0.51099,0.00920,6.52573,10.73279,10.74199
40.35100,0.64120,0.01161,0.66449,0.30845,0.19813,-0.39217,0.01944,-0.01443,1.96611,0.00057,0.03445,1.83313,0.31679,0.52605,-0.29980,-0.51099,-5.01693,876.80828,846.79046,0.58555,14.14249,0.51099,0.01010,6.52573,10.73279,10.74289
40.35200,0.64120,0.01161,0.66449,0.30845,0.19813,-0.39217,0.01944,-0.01443,1.96611,0.00057,0.03445,1.83313,0.31679,0.52605,-0.29980,-0.51099,-5.01693,876.80828,846.79046,0.58555,14.14168,0.51099,0.01100,6.52573,10.73279,10.74380
40.35300,0.64120,0.01161,0.66449,0.31416,0.19830,-0.36613,0.01944,-0.01443,1.96611,0.00057,0.03445,1.83313,0.31679,0.52605,-0.29980,-0.51099,-5.01781,876.88494,846.79046,0.58568,14.14086,0.51099,0.01198,6.52573,10.73279,10.74477
40.35400,0.64120,0.01161,0.66449,0.31416,0.19830,-0.36613,0.01944,-0.01443,1.96611,0.00057,0.03445,1.83313,0.31679,0.52605,-0.29980,-0.51099,-5.01781,876.88494,846.79046,0.58568,14.14003,0.51099,0.01296,6.52573,10.73279,10.74575
40.35499,0.64120,0.01161,0.66449,0.31072,0.19881,-0.33756,0.01944,-0.01443,1.96611,0.00057,0.03445,1.83313,0.31679,0.52605,-0.29980,-0.51099,-5.01879,876.97045,847.59008,0.58582,14.13918,0.51099,0.01408,6.52573,10.73279,10.74687
40.35599,0.64120,0.01161,0.66449,0.31072,0.19881,-0.33756,0.01944,-0.01443,1.96611,0.00057,0.03445,1.83313,0.31679,0.52605,-0.29980,-0.51099,-5.01879,876.97045,847.59008,0.58582,14.13833,0.51099,0.01519,6.52573,10.73279,10.74799
40.35699,0.62912,0.02770,0.68273,0.30242,0.19261,-0.30971,0.01986,-0.01245,1.96611,0.00399,0.03672,1.82945,0.31679,0.52605,-0.29980,-0.51099,-5.01974,877.05419,851.61090,0.58596,14.13746,0.51099,0.01632,6.52573,10.73259,10.74892
40.35800,0.62912,0.02770,0.68273,0.30242,0.19261,-0.30971,0.01986,-0.01245,1.96611,0.00399,0.03672,1.82945,0.31679,0.52605,-0.29980,-0.51099,-5.01974,877.05419,851.61090,0.58596,14.13658,0.51099,0.01745,6.52573,10.73259,10.75005
40.35900,0.62912,0.02770,0.68273,0.30209,0.18478,-0.28419,0.01986,-0.01245,1.96611,0.00399,0.03672,1.82945,0.31679,0.52605,-0.29980,-0.51099,-5.02080,877.14678,854.85510,0.58611,14.13570,0.51099,0.01859,6.52573,10.73259,10.75119
40.36000,0.62912,0.02770,0.68273,0.30209,0.18478,-0.28419,0.01986,-0.01245,1.96611,0.00399,0.03672,1.82945,0.31679,0.52605,-0.29980,-0.51099,-5.02080,877.14678,854.85510,0.58611,14.13480,0.51099,0.01973,6.52573,10.73259,10.75233
40.36100,0.62912,0.02770,0.68273,0.30503,0.18003,-0.25849,0.01986,-0.01245,1.96611,0.00399,0.03672,1.82945,0.31679,0.52605,-0.29980,-0.51099,-5.02191,877.24353,854.85510,0.58626,14.13389,0.51099,0.02097,6.52573,10.73259,10.75356
40.36199,0.62912,0.02770,0.68273,0.30503,0.18003,-0.25849,0.01986,-0.01245,1.96611,0.00399,0.03672,1.82945,0.31679,0.52605,-0.29980,-0.51099,-5.02191,877.24353,854.85510,0.58626,14.13297,0.51099,0.02220,6.52573,10.73259,10.75480
40.36299,0.62912,0.02770,0.68273,0.30160,0.17343,-0.23162,0.01986,-0.01245,1.96611,0.00399,0.03672,1.82945,0.31679,0.52605,-0.29980,-0.51099,-5.02306,877.34362,854.85510,0.58642,14.13205,0.51099,0.02342,6.52573,10.73259,10.75602
40.36399,0.62912,0.02770,0.68273,0.30160,0.17343,-0.23162,0.01986,-0.01245,1.96611,0.00399,0.03672,1.82945,0.31679,0.52605,-0.29980,-0.51099,-5.02306,877.34362,854.85510,0.58642,14.13111,0.51099,0.02464,6.52573,10.73259,10.75724
40.36500,0.62912,0.02770,0.68273,0.29882,0.16379,-0.20547,0.01986,-0.01245,1.96611,0.00399,0.03672,1.82945,0.31679,0.52605,-0.29980,-0.51099,-5.02412,877.43670,854.85510,0.58658,14.13016,0.51099,0.02570,6.52573,10.73259,10.75830
40.36600,0.62912,0.02770,0.68273,0.29882,0.16379,-0.20547,0.01986,-0.01245,1.96611,0.00399,0.03672,1.82945,0.31679,0.52605,-0.29980,-0.51099,-5.02412,877.43670,854.85510,0.58658,14.12921,0.50239,0.02676,6.52573,10.73259,10.75936
40.36700,0.51759,-0.21818,0.69591,0.30280,0.15776,-0.17921,0.01534,-0.02370,1.96611,0.00744,0.03881,1.82715,0.30389,0.52184,-0.29980,-0.50239,-5.04400,879.13806,854.85510,0.58804,14.12824,0.50239,0.02784,6.52621,10.77302,10.80087
40.36800,0.51759,-0.21818,0.69591,0.30280,0.15776,-0.17921,0.01534,-0.02370,1.96611,0.00744,0.03881,1.82715,0.30389,0.52184,-0.29980,-0.50239,-5.04400,879.13806,854.85510,0.58804,14.12727,0.50239,0.02891,6.52621,10.77302,10.80194
40.36899,0.51759,-0.21818,0.69591,0.30294,0.15465,-0.14979,0.01534,-0.02370,1.96611,0.00744,0.03881,1.82715,0.30389,0.52184,-0.29980,-0.50239,-5.04502,879.22656,854.85510,0.58820,14.12629,0.50239,0.03001,6.52621,10.77302,10.80304
40.36999,0.51759,-0.21818,0.69591,0.30294,0.15465,-0.14979,0.01534,-0.02370,1.96611,0.00744,0.03881,1.82715,0.30389,0.52184,-0.29980,-0.50239,-5.04502,879.22656,854.85510,0.58820,14.12530,0.50239,0.03112,6.52621,10.77302,10.80414
40.37099,0.51759,-0.21818,0.69591,0.29503,0.14653,-0.11811,0.01534,-0.02370,1.96611,0.00744,0.03881,1.82715,0.30389,0.52184,-0.29980,-0.50239,-5.04601,879.31323,854.85510,0.58835,14.12430,0.50239,0.03214,6.52621,10.77302,10.80517
40.37200,0.51759,-0.21818,0.69591,0.29503,0.14653,-0.11811,0.01534,-0.02370,1.96611,0.00744,0.03881,1.82715,0.30389,0.52184,-0.29980,-0.50239,-5.04601,879.31323,854.04180,0.58835,14.12328,0.50239,0.03317,6.52621,10.77302,10.80620
40.37300,0.51759,-0.21818,0.69591,0.29170,0.13438,-0.08761,0.01534,-0.02370,1.96611,0.00744,0.03881,1.82715,0.30389,0.52184,-0.29980,-0.50239,-5.04691,879.39117,854.04180,0.58850,14.12226,0.50239,0.03406,6.52621,10.77302,10.80709
40.37400,0.51759,-0.21818,0.69591,0.29170,0.13438,-0.08761,0.01534,-0.02370,1.96611,0.00744,0.03881,1.82715,0.30389,0.52184,-0.29980,-0.50239,-5.04691,879.39117,854.85510,0.58850,14.12123,0.50239,0.03495,6.52621,10.77302,10.80798
40.37500,0.51759,-0.21818,0.69591,0.29556,0.12506,-0.05816,0.01534,-0.02370,1.96611,0.00744,0.03881,1.82715,0.30389,0.52184,-0.29980,-0.50239,-5.04774,879.46374,858.12420,0.58865,14.12019,0.50239,0.03584,6.52621,10.77302,10.80887
40.37599,0.51759,-0.21818,0.69591,0.29556,0.12506,-0.05816,0.01534,-0.02370,1.96611,0.00744,0.03881,1.82715,0.30389,0.52184,-0.29980,-0.50239,-5.04774,879.46374,859.76806,0.58865,14.11913,0.49340,0.03674,6.52621,10.77302,10.80977
40.37699,0.60559,-0.05657,0.69917,0.29363,0.11649,-0.02801,0.01913,-0.01942,1.96611,0.01089,0.04052,1.82629,0.29039,0.53417,-0.29980,-0.49340,-5.10289,884.21649,854.04180,0.59262,14.11807,0.49340,0.03793,6.52678,10.88903,10.92697
40.37799,0.60559,-0.05657,0.69917,0.29363,0.11649,-0.02801,0.01913,-0.01942,1.96611,0.01089,0.04052,1.82629,0.29039,0.53417,-0.29980,-0.49340,-5.10289,884.21649,859.76806,0.59262,14.11700,0.49340,0.03913,6.52678,10.88903,10.92816
40.37900,0.60559,-0.05657,0.69917,0.28460,0.10398,0.00158,0.01913,-0.01942,1.96611,0.01089,0.04052,1.82629,0.29039,0.53417,-0.29980,-0.49340,-5.10399,884.31207,859.76806,0.59279,14.11592,0.49340,0.04030,6.52678,10.88903,10.92933
40.38000,0.60559,-0.05657,0.69917,0.28460,0.10398,0.00158,0.01913,-0.01942,1.96611,0.01089,0.04052,1.82629,0.29039,0.53417,-0.29980,-0.49340,-5.10399,884.31207,854.04180,0.59279,14.11482,0.49340,0.04146,6.52678,10.88903,10.93050
40.38100,0.60559,-0.05657,0.69917,0.27898,0.09220,0.02986,0.01913,-0.01942,1.96611,0.01089,0.04052,1.82629,0.29039,0.53417,-0.29980,-0.49340,-5.10508,884.40588,859.76806,0.59295,14.11372,0.49340,0.04262,6.52678,10.88903,10.93165
40.38199,0.60559,-0.05657,0.69917,0.27898,0.09220,0.02986,0.01913,-0.01942,1.96611,0.01089,0.04052,1.82629,0.29039,0.53417,-0.29980,-0.49340,-5.10508,884.40588,859.76806,0.59295,14.11261,0.49340,0.04377,6.52678,10.88903,10.93280
40.38299,0.60559,-0.05657,0.69917,0.27468,0.08478,0.05988,0.01913,-0.01942,1.96611,0.01089,0.04052,1.82629,0.29039,0.53417,-0.29980,-0.49340,-5.10620,884.50341,859.76806,0.59313,14.11149,0.49340,0.04503,6.52678,10.88903,10.93406
