time,target gyro x,target gyro y,target gyro z,gyro x,gyro y,gyro z,target angle x,target angle y,target angle z,angle x,angle y,angle z,target vel z,vel z,target pos z,pos z,desire thrust,desire rotor speed,rotor speed,motor_output,bettery voltage,height,thrust,K_T,acc_z_d,acc_z_com
53.67100,0.58972,0.52389,0.27940,-0.24469,0.08289,0.06692,-0.03529,0.00834,0.01299,-0.01472,-0.04262,-0.04138,0.01155,-0.02612,-0.65000,-0.65770,-4.32980,814.78057,831.87939,0.63442,11.92558,0.65810,-0.40981,6.52209,9.68134,9.27153
53.67200,0.58972,0.52389,0.27940,-0.24469,0.08289,0.06692,-0.03529,0.00834,0.01299,-0.01472,-0.04262,-0.04138,0.01155,-0.02612,-0.65000,-0.65770,-4.32980,814.78057,831.87939,0.63442,11.92596,0.65810,-0.40978,6.52209,9.68134,9.27156
53.67300,0.58972,0.52389,0.27940,-0.24467,0.08432,0.07072,-0.03529,0.00834,0.01299,-0.01472,-0.04262,-0.04138,0.01155,-0.02612,-0.65000,-0.65770,-4.32983,814.78314,831.87939,0.63438,11.92635,0.65810,-0.40975,6.52209,9.68134,9.27159
53.67399,0.58972,0.52389,0.27940,-0.24467,0.08432,0.07072,-0.03529,0.00834,0.01299,-0.01472,-0.04262,-0.04138,0.01155,-0.02612,-0.65000,-0.65770,-4.32983,814.78314,830.34033,0.63438,11.92674,0.65810,-0.40970,6.52209,9.68134,9.27163
53.67499,1.57079,1.57079,0.31273,-0.23794,0.08689,0.07559,0.07353,0.11791,0.01299,-0.01750,-0.04183,-0.04061,0.53715,-0.02542,-0.30000,-0.65810,-3.62688,745.71569,831.87939,0.56755,11.92714,0.65810,-0.41267,6.52209,8.17902,7.76635
53.67599,1.57079,1.57079,0.31273,-0.23794,0.08689,0.07559,0.07353,0.11791,0.01299,-0.01750,-0.04183,-0.04061,0.53715,-0.02542,-0.30000,-0.65810,-3.62688,745.71569,839.66131,0.56755,11.92754,0.65810,-0.41554,6.52209,8.17902,7.76347
53.67699,1.57079,1.57079,0.31273,-0.23475,0.09463,0.08410,0.07353,0.11791,0.01299,-0.01750,-0.04183,-0.04061,0.53715,-0.02542,-0.30000,-0.65810,-3.62420,745.43981,839.66131,0.56724,11.92796,0.65810,-0.41841,6.52209,8.17902,7.76060
53.67800,1.57079,1.57079,0.31273,-0.23475,0.09463,0.08410,0.07353,0.11791,0.01299,-0.01750,-0.04183,-0.04061,0.53715,-0.02542,-0.30000,-0.65810,-3.62420,745.43981,1438.45812,0.56724,11.92838,0.65810,-0.42144,6.52209,8.17902,7.75757
53.67900,1.57079,1.57079,0.31273,-0.23734,0.09902,0.09076,0.07353,0.11791,0.01299,-0.01750,-0.04183,-0.04061,0.53715,-0.02542,-0.30000,-0.65810,-3.62137,745.14904,1438.45812,0.56692,11.92880,0.65810,-0.42446,6.52209,8.17902,7.75455
53.68000,1.57079,1.57079,0.31273,-0.23734,0.09902,0.09076,0.07353,0.11791,0.01299,-0.01750,-0.04183,-0.04061,0.53715,-0.02542,-0.30000,-0.65810,-3.62137,745.14904,839.66131,0.56692,11.92924,0.65810,-0.42788,6.52209,8.17902,7.75114
53.68099,1.57079,1.57079,0.31273,-0.23632,0.09886,0.08797,0.07353,0.11791,0.01299,-0.01750,-0.04183,-0.04061,0.53715,-0.02542,-0.30000,-0.65810,-3.61818,744.82116,830.34033,0.56656,11.92968,0.65810,-0.43129,6.52209,8.17902,7.74772
53.68199,1.57079,1.57079,0.31273,-0.23632,0.09886,0.08797,0.07353,0.11791,0.01299,-0.01750,-0.04183,-0.04061,0.53715,-0.02542,-0.30000,-0.65810,-3.61818,744.82116,830.34033,0.56656,11.93012,0.65810,-0.43496,6.52209,8.17902,7.74405
53.68299,1.57079,1.57079,0.31273,-0.23176,0.10438,0.07941,0.07353,0.11791,0.01299,-0.01750,-0.04183,-0.04061,0.53715,-0.02542,-0.30000,-0.65810,-3.61476,744.46832,828.80694,0.56618,11.93058,0.65810,-0.43863,6.52209,8.17902,7.74039
53.68399,1.57079,1.57079,0.31273,-0.23176,0.10438,0.07941,0.07353,0.11791,0.01299,-0.01750,-0.04183,-0.04061,0.53715,-0.02542,-0.30000,-0.65810,-3.61476,744.46832,828.80694,0.56618,11.93103,0.65810,-0.44238,6.52209,8.17902,7.73664
53.68500,0.81056,0.68246,0.27703,-0.23317,0.11589,0.07402,0.02550,0.06942,0.01299,-0.02024,-0.04079,-0.03968,0.53715,-0.02542,-0.30000,-0.65810,-3.58480,741.37707,828.80694,0.56315,11.93150,0.65810,-0.44624,6.52209,8.12248,7.67624
53.68600,0.81056,0.68246,0.27703,-0.23317,0.11589,0.07402,0.02550,0.06942,0.01299,-0.02024,-0.04079,-0.03968,0.53715,-0.02542,-0.30000,-0.65810,-3.58480,741.37707,828.80694,0.56315,11.93196,0.65810,-0.45027,6.52209,8.12248,7.67221
53.68700,0.81056,0.68246,0.27703,-0.23887,0.12279,0.07348,0.02550,0.06942,0.01299,-0.02024,-0.04079,-0.03968,0.53715,-0.02542,-0.30000,-0.65810,-3.58104,740.98779,826.51739,0.56272,11.93243,0.65810,-0.45430,6.52209,8.12248,7.66818
53.68799,0.81056,0.68246,0.27703,-0.23887,0.12279,0.07348,0.02550,0.06942,0.01299,-0.02024,-0.04079,-0.03968,0.53715,-0.02542,-0.30000,-0.65810,-3.58104,740.98779,824.99804,0.56272,11.93291,0.65810,-0.45852,6.52209,8.12248,7.66395
53.68899,0.81056,0.68246,0.27703,-0.23932,0.12514,0.07726,0.02550,0.06942,0.01299,-0.02024,-0.04079,-0.03968,0.53715,-0.02542,-0.30000,-0.65810,-3.57709,740.57946,824.24047,0.56229,11.93339,0.65810,-0.46275,6.52209,8.12248,7.65973
53.68999,0.81056,0.68246,0.27703,-0.23932,0.12514,0.07726,0.02550,0.06942,0.01299,-0.02024,-0.04079,-0.03968,0.53715,-0.02542,-0.30000,-0.65810,-3.57709,740.57946,824.24047,0.56229,11.93387,0.65810,-0.46692,6.52209,8.12248,7.65556
53.69100,0.81056,0.68246,0.27703,-0.23637,0.13145,0.08989,0.02550,0.06942,0.01299,-0.02024,-0.04079,-0.03968,0.53715,-0.02542,-0.30000,-0.65810,-3.57319,740.17596,821.97613,0.56185,11.93436,0.65840,-0.47109,6.52209,8.12248,7.65138
53.69200,0.81056,0.68246,0.27703,-0.23637,0.13145,0.08989,0.02550,0.06942,0.01299,-0.02024,-0.04079,-0.03968,0.53715,-0.02542,-0.30000,-0.65810,-3.57319,740.17596,821.97613,0.56185,11.93485,0.65840,-0.47513,6.52209,8.12248,7.64735
53.69300,0.81056,0.68246,0.27703,-0.23697,0.13894,0.11207,0.02550,0.06942,0.01299,-0.02024,-0.04079,-0.03968,0.53715,-0.02542,-0.30000,-0.65810,-3.56942,739.78552,821.97613,0.56143,11.93534,0.65840,-0.47916,6.52209,8.12248,7.64331
53.69400,0.81056,0.68246,0.27703,-0.23697,0.13894,0.11207,0.02550,0.06942,0.01299,-0.02024,-0.04079,-0.03968,0.53715,-0.02542,-0.30000,-0.65810,-3.56942,739.78552,818.97613,0.56143,11.93584,0.65840,-0.48327,6.52209,8.12248,7.63921
53.69499,0.46614,0.49553,0.27049,-0.23647,0.14037,0.13581,0.00216,0.05557,0.01299,-0.02298,-0.03945,-0.03885,0.53759,-0.02639,-0.30000,-0.65840,-3.55908,738.71240,818.97613,0.56034,11.93634,0.65840,-0.48740,6.52209,8.10856,7.62115
53.69599,0.46614,0.49553,0.27049,-0.23647,0.14037,0.13581,0.00216,0.05557,0.01299,-0.02298,-0.03945,-0.03885,0.53759,-0.02639,-0.30000,-0.65840,-3.55908,738.71240,817.48443,0.56034,11.93685,0.65840,-0.49160,6.52209,8.10856,7.61696
53.69699,0.46614,0.49553,0.27049,-0.22921,0.14265,0.15699,0.00216,0.05557,0.01299,-0.02298,-0.03945,-0.03885,0.53759,-0.02639,-0.30000,-0.65840,-3.55516,738.30554,814.51715,0.55990,11.93736,0.65840,-0.49579,6.52209,8.10856,7.61276
53.69800,0.46614,0.49553,0.27049,-0.22921,0.14265,0.15699,0.00216,0.05557,0.01299,-0.02298,-0.03945,-0.03885,0.53759,-0.02639,-0.30000,-0.65840,-3.55516,738.30554,814.51715,0.55990,11.93787,0.65840,-0.49978,6.52209,8.10856,7.60877
53.69900,0.46614,0.49553,0.27049,-0.22381,0.15493,0.18159,0.00216,0.05557,0.01299,-0.02298,-0.03945,-0.03885,0.53759,-0.02639,-0.30000,-0.65840,-3.55143,737.91882,807.91894,0.55948,11.93838,0.65840,-0.50377,6.52209,8.10856,7.60479
53.70000,0.46614,0.49553,0.27049,-0.22381,0.15493,0.18159,0.00216,0.05557,0.01299,-0.02298,-0.03945,-0.03885,0.53759,-0.02639,-0.30000,-0.65840,-3.55143,737.91882,807.91894,0.55948,11.93890,0.65840,-0.50752,6.52209,8.10856,7.60104
53.70100,0.46614,0.49553,0.27049,-0.22772,0.16947,0.21369,0.00216,0.05557,0.01299,-0.02298,-0.03945,-0.03885,0.53759,-0.02639,-0.30000,-0.65840,-3.54793,737.55487,814.51715,0.55908,11.93942,0.65840,-0.51127,6.52209,8.10856,7.59729
53.70199,0.46614,0.49553,0.27049,-0.22772,0.16947,0.21369,0.00216,0.05557,0.01299,-0.02298,-0.03945,-0.03885,0.53759,-0.02639,-0.30000,-0.65840,-3.54793,737.55487,814.51715,0.55908,11.93994,0.65840,-0.51498,6.52209,8.10856,7.59357
53.70299,0.46614,0.49553,0.27049,-0.23120,0.17587,0.25013,0.00216,0.05557,0.01299,-0.02298,-0.03945,-0.03885,0.53759,-0.02639,-0.30000,-0.65840,-3.54446,737.19396,807.91894,0.55868,11.94047,0.65840,-0.51870,6.52209,8.10856,7.58985
53.70399,0.46614,0.49553,0.27049,-0.23120,0.17587,0.25013,0.00216,0.05557,0.01299,-0.02298,-0.03945,-0.03885,0.53759,-0.02639,-0.30000,-0.65840,-3.54446,737.19396,805.74316,0.55868,11.94100,0.65840,-0.52233,6.52209,8.10856,7.58622
53.70500,0.54292,0.39077,0.25997,-0.22480,0.18056,0.29119,-0.00661,0.04282,0.01299,-0.02568,-0.03776,-0.03701,0.53759,-0.02639,-0.30000,-0.65840,-3.53876,736.60070,805.74316,0.55806,11.94153,0.65840,-0.52598,6.52209,8.10363,7.57764
53.70600,0.54292,0.39077,0.25997,-0.22480,0.18056,0.29119,-0.00661,0.04282,0.01299,-0.02568,-0.03776,-0.03701,0.53759,-0.02639,-0.30000,-0.65840,-3.53876,736.60070,805.74316,0.55806,11.94207,0.65840,-0.52929,6.52209,8.10363,7.57433
53.70700,0.54292,0.39077,0.25997,-0.21588,0.19230,0.34221,-0.00661,0.04282,0.01299,-0.02568,-0.03776,-0.03701,0.53759,-0.02639,-0.30000,-0.65840,-3.53566,736.27880,799.99810,0.55770,11.94260,0.65840,-0.53260,6.52209,8.10363,7.57102
53.70800,0.54292,0.39077,0.25997,-0.21588,0.19230,0.34221,-0.00661,0.04282,0.01299,-0.02568,-0.03776,-0.03701,0.53759,-0.02639,-0.30000,-0.65840,-3.53566,736.27880,797.86480,0.55770,11.94314,0.65840,-0.53557,6.52209,8.10363,7.56805
53.70899,0.54292,0.39077,0.25997,-0.21241,0.20474,0.40093,-0.00661,0.04282,0.01299,-0.02568,-0.03776,-0.03701,0.53759,-0.02639,-0.30000,-0.65840,-3.53289,735.98968,797.86480,0.55737,11.94368,0.65840,-0.53855,6.52209,8.10363,7.56508
53.70999,0.54292,0.39077,0.25997,-0.21241,0.20474,0.40093,-0.00661,0.04282,0.01299,-0.02568,-0.03776,-0.03701,0.53759,-0.02639,-0.30000,-0.65840,-3.53289,735.98968,797.86480,0.55737,11.94423,0.65840,-0.54138,6.52209,8.10363,7.56224
53.71099,0.54292,0.39077,0.25997,-0.20856,0.21092,0.45737,-0.00661,0.04282,0.01299,-0.02568,-0.03776,-0.03701,0.53759,-0.02639,-0.30000,-0.65840,-3.53024,735.71392,797.86480,0.55705,11.94478,0.65899,-0.54422,6.52208,8.10363,7.55940
53.71200,0.54292,0.39077,0.25997,-0.20856,0.21092,0.45737,-0.00661,0.04282,0.01299,-0.02568,-0.03776,-0.03701,0.53759,-0.02639,-0.30000,-0.65840,-3.53024,735.71392,797.86480,0.55705,11.94533,0.65899,-0.54689,6.52208,8.10363,7.55673
53.71300,0.54292,0.39077,0.25997,-0.19992,0.21801,0.50888,-0.00661,0.04282,0.01299,-0.02568,-0.03776,-0.03701,0.53759,-0.02639,-0.30000,-0.65840,-3.52774,735.45361,797.86480,0.55675,11.94589,0.65899,-0.54957,6.52208,8.10363,7.55405
53.71400,0.54292,0.39077,0.25997,-0.19992,0.21801,0.50888,-0.00661,0.04282,0.01299,-0.02568,-0.03776,-0.03701,0.53759,-0.02639,-0.30000,-0.65840,-3.52774,735.45361,797.86480,0.55675,11.94645,0.65899,-0.55189,6.52208,8.10363,7.55173
53.71500,0.76021,0.55630,0.24545,-0.19404,0.23156,0.56198,-0.00409,0.04374,0.01299,-0.02835,-0.03551,-0.03295,0.53849,-0.03208,-0.30000,-0.65899,-3.51640,734.27050,795.74279,0.55555,11.94701,0.65899,-0.55426,6.52208,8.08404,7.52977
53.71599,0.76021,0.55630,0.24545,-0.19404,0.23156,0.56198,-0.00409,0.04374,0.01299,-0.02835,-0.03551,-0.03295,0.53849,-0.03208,-0.30000,-0.65899,-3.51640,734.27050,795.03796,0.55555,11.94758,0.65899,-0.55635,6.52208,8.08404,7.52769
53.71699,0.76021,0.55630,0.24545,-0.19372,0.24313,0.61891,-0.00409,0.04374,0.01299,-0.02835,-0.03551,-0.03295,0.53849,-0.03208,-0.30000,-0.65899,-3.51445,734.06713,795.03796,0.55530,11.94815,0.65899,-0.55843,6.52208,8.08404,7.52560
53.71799,0.76021,0.55630,0.24545,-0.19372,0.24313,0.61891,-0.00409,0.04374,0.01299,-0.02835,-0.03551,-0.03295,0.53849,-0.03208,-0.30000,-0.65899,-3.51445,734.06713,795.03796,0.55530,11.94873,0.65899,-0.56044,6.52208,8.08404,7.52359
53.71900,0.76021,0.55630,0.24545,-0.18870,0.24785,0.67556,-0.00409,0.04374,0.01299,-0.02835,-0.03551,-0.03295,0.53849,-0.03208,-0.30000,-0.65899,-3.51258,733.87121,795.03796,0.55506,11.94931,0.65899,-0.56245,6.52208,8.08404,7.52158
53.72000,0.76021,0.55630,0.24545,-0.18870,0.24785,0.67556,-0.00409,0.04374,0.01299,-0.02835,-0.03551,-0.03295,0.53849,-0.03208,-0.30000,-0.65899,-3.51258,733.87121,792.23114,0.55506,11.94990,0.65899,-0.56430,6.52208,8.08404,7.51973
53.72100,0.76021,0.55630,0.24545,-0.17532,0.25520,0.73240,-0.00409,0.04374,0.01299,-0.02835,-0.03551,-0.03295,0.53849,-0.03208,-0.30000,-0.65899,-3.51084,733.69049,792.23114,0.55483,11.95049,0.65950,-0.56616,6.52208,8.08404,7.51787
53.72200,0.76021,0.55630,0.24545,-0.17532,0.25520,0.73240,-0.00409,0.04374,0.01299,-0.02835,-0.03551,-0.03295,0.53849,-0.03208,-0.30000,-0.65899,-3.51084,733.69049,792.23114,0.55483,11.95109,0.65950,-0.56767,6.52208,8.08404,7.51636
53.72299,0.76021,0.55630,0.24545,-0.16552,0.26991,0.79398,-0.00409,0.04374,0.01299,-0.02835,-0.03551,-0.03295,0.53849,-0.03208,-0.30000,-0.65899,-3.50944,733.54321,791.53253,0.55463,11.95169,0.65950,-0.56918,6.52208,8.08404,7.51486
53.72399,0.76021,0.55630,0.24545,-0.16552,0.26991,0.79398,-0.00409,0.04374,0.01299,-0.02835,-0.03551,-0.03295,0.53849,-0.03208,-0.30000,-0.65899,-3.50944,733.54321,791.53253,0.55463,11.95230,0.65950,-0.57047,6.52208,8.08404,7.51356
53.72499,0.71263,0.64126,0.21430,-0.16531,0.28200,0.85702,-0.00895,0.04649,0.01299,-0.03077,-0.03268,-0.02591,0.53924,-0.03202,-0.30000,-0.65950,-3.50785,733.37786,787.36657,0.55442,11.95291,0.65950,-0.57177,6.52208,8.08324,7.51147
53.72600,0.71263,0.64126,0.21430,-0.16531,0.28200,0.85702,-0.00895,0.04649,0.01299,-0.03077,-0.03268,-0.02591,0.53924,-0.03202,-0.30000,-0.65950,-3.50785,733.37786,787.36657,0.55442,11.95352,0.65950,-0.57314,6.52208,8.08324,7.51010
53.72700,0.71263,0.64126,0.21430,-0.16348,0.28663,0.91260,-0.00895,0.04649,0.01299,-0.03077,-0.03268,-0.02591,0.53924,-0.03202,-0.30000,-0.65950,-3.50658,733.24432,787.36657,0.55423,11.95415,0.65950,-0.57450,6.52208,8.08324,7.50873
53.72800,0.71263,0.64126,0.21430,-0.16348,0.28663,0.91260,-0.00895,0.04649,0.01299,-0.03077,-0.03268,-0.02591,0.53924,-0.03202,-0.30000,-0.65950,-3.50658,733.24432,781.19921,0.55423,11.95477,0.65950,-0.57591,6.52208,8.08324,7.50732
53.72900,0.71263,0.64126,0.21430,-0.15276,0.29407,0.96063,-0.00895,0.04649,0.01299,-0.03077,-0.03268,-0.02591,0.53924,-0.03202,-0.30000,-0.65950,-3.50526,733.10675,781.19921,0.55404,11.95541,0.65950,-0.57732,6.52208,8.08324,7.50592
53.72999,0.71263,0.64126,0.21430,-0.15276,0.29407,0.96063,-0.00895,0.04649,0.01299,-0.03077,-0.03268,-0.02591,0.53924,-0.03202,-0.30000,-0.65950,-3.50526,733.10675,781.19921,0.55404,11.95605,0.65950,-0.57855,6.52208,8.08324,7.50468
53.73099,0.71263,0.64126,0.21430,-0.14289,0.30966,1.00935,-0.00895,0.04649,0.01299,-0.03077,-0.03268,-0.02591,0.53924,-0.03202,-0.30000,-0.65950,-3.50411,732.98651,777.14105,0.55387,11.95669,0.66009,-0.57979,6.52208,8.08324,7.50345
53.73199,0.71263,0.64126,0.21430,-0.14289,0.30966,1.00935,-0.00895,0.04649,0.01299,-0.03077,-0.03268,-0.02591,0.53924,-0.03202,-0.30000,-0.65950,-3.50411,732.98651,776.46875,0.55387,11.95734,0.66009,-0.58089,6.52208,8.08324,7.50235
53.73300,0.71263,0.64126,0.21430,-0.14067,0.32305,1.06045,-0.00895,0.04649,0.01299,-0.03077,-0.03268,-0.02591,0.53924,-0.03202,-0.30000,-0.65950,-3.50308,732.87902,781.19921,0.55370,11.95800,0.66009,-0.58199,6.52208,8.08324,7.50125
53.73400,0.71263,0.64126,0.21430,-0.14067,0.32305,1.06045,-0.00895,0.04649,0.01299,-0.03077,-0.03268,-0.02591,0.53924,-0.03202,-0.30000,-0.65950,-3.50308,732.87902,776.46875,0.55370,11.95866,0.66009,-0.58316,6.52208,8.08324,7.50007
53.73500,0.70155,0.63085,0.16560,-0.13661,0.32808,1.10792,-0.01288,0.04726,0.01299,-0.03292,-0.02921,-0.01596,0.54014,-0.03124,-0.30000,-0.66009,-3.50211,732.77703,776.46875,0.55354,11.95933,0.66009,-0.58434,6.52208,8.08350,7.49916
53.73600,0.70155,0.63085,0.16560,-0.13661,0.32808,1.10792,-0.01288,0.04726,0.01299,-0.03292,-0.02921,-0.01596,0.54014,-0.03124,-0.30000,-0.66009,-3.50211,732.77703,776.46875,0.55354,11.96000,0.66009,-0.58554,6.52208,8.08350,7.49796
53.73699,0.70155,0.63085,0.16560,-0.12421,0.33409,1.15111,-0.01288,0.04726,0.01299,-0.03292,-0.02921,-0.01596,0.54014,-0.03124,-0.30000,-0.66009,-3.50099,732.65985,776.46875,0.55337,11.96068,0.66009,-0.58674,6.52208,8.08350,7.49676
53.73799,0.70155,0.63085,0.16560,-0.12421,0.33409,1.15111,-0.01288,0.04726,0.01299,-0.03292,-0.02921,-0.01596,0.54014,-0.03124,-0.30000,-0.66009,-3.50099,732.65985,775.12774,0.55337,11.96136,0.66009,-0.58777,6.52208,8.08350,7.49572
53.73899,0.70155,0.63085,0.16560,-0.11357,0.34687,1.19549,-0.01288,0.04726,0.01299,-0.03292,-0.02921,-0.01596,0.54014,-0.03124,-0.30000,-0.66009,-3.50001,732.55828,775.12774,0.55320,11.96205,0.66009,-0.58881,6.52208,8.08350,7.49468
53.74000,0.70155,0.63085,0.16560,-0.11357,0.34687,1.19549,-0.01288,0.04726,0.01299,-0.03292,-0.02921,-0.01596,0.54014,-0.03124,-0.30000,-0.66009,-3.50001,732.55828,771.79522,0.55320,11.96274,0.66009,-0.58979,6.52208,8.08350,7.49371
53.74100,0.70155,0.63085,0.16560,-0.11243,0.35781,1.23996,-0.01288,0.04726,0.01299,-0.03292,-0.02921,-0.01596,0.54014,-0.03124,-0.30000,-0.66009,-3.49910,732.46270,771.79522,0.55305,11.96345,0.66009,-0.59077,6.52208,8.08350,7.49273
53.74200,0.70155,0.63085,0.16560,-0.11243,0.35781,1.23996,-0.01288,0.04726,0.01299,-0.03292,-0.02921,-0.01596,0.54014,-0.03124,-0.30000,-0.66009,-3.49910,732.46270,771.79522,0.55305,11.96415,0.66009,-0.59193,6.52208,8.08350,7.49156
53.74300,0.70155,0.63085,0.16560,-0.11174,0.36225,1.27696,-0.01288,0.04726,0.01299,-0.03292,-0.02921,-0.01596,0.54014,-0.03124,-0.30000,-0.66009,-3.49801,732.34875,771.79522,0.55287,11.96487,0.66009,-0.59310,6.52208,8.08350,7.49040
53.74399,0.70155,0.63085,0.16560,-0.11174,0.36225,1.27696,-0.01288,0.04726,0.01299,-0.03292,-0.02921,-0.01596,0.54014,-0.03124,-0.30000,-0.66009,-3.49801,732.34875,771.79522,0.55287,11.96559,0.66009,-0.59440,6.52208,8.08350,7.48909
53.74499,0.76507,0.50474,0.10130,-0.10358,0.36978,1.30644,-0.01275,0.04223,0.01299,-0.03476,-0.02514,-0.00374,0.54014,-0.03124,-0.30000,-0.66009,-3.49594,732.13128,771.79522,0.55260,11.96632,0.66009,-0.59571,6.52208,8.08167,7.48595
53.74599,0.76507,0.50474,0.10130,-0.10358,0.36978,1.30644,-0.01275,0.04223,0.01299,-0.03476,-0.02514,-0.00374,0.54014,-0.03124,-0.30000,-0.66009,-3.49594,732.13128,771.79522,0.55260,11.96705,0.66009,-0.59691,6.52208,8.08167,7.48476
53.74700,0.76507,0.50474,0.10130,-0.09551,0.38534,1.33663,-0.01275,0.04223,0.01299,-0.03476,-0.02514,-0.00374,0.54014,-0.03124,-0.30000,-0.66009,-3.49482,732.01446,770.47027,0.55241,11.96779,0.66009,-0.59810,6.52208,8.08167,7.48356
53.74800,0.76507,0.50474,0.10130,-0.09551,0.38534,1.33663,-0.01275,0.04223,0.01299,-0.03476,-0.02514,-0.00374,0.54014,-0.03124,-0.30000,-0.66009,-3.49482,732.01446,770.47027,0.55241,11.96853,0.66009,-0.59919,6.52208,8.08167,7.48247
53.74900,0.76507,0.50474,0.10130,-0.09368,0.39850,1.36959,-0.01275,0.04223,0.01299,-0.03476,-0.02514,-0.00374,0.54014,-0.03124,-0.30000,-0.66009,-3.49381,731.90820,767.83392,0.55224,11.96928,0.66009,-0.60027,6.52208,8.08167,7.48139
53.75000,0.76507,0.50474,0.10130,-0.09368,0.39850,1.36959,-0.01275,0.04223,0.01299,-0.03476,-0.02514,-0.00374,0.54014,-0.03124,-0.30000,-0.66009,-3.49381,731.90820,767.83392,0.55224,11.97003,0.66009,-0.60147,6.52208,8.08167,7.48020
53.75099,0.76507,0.50474,0.10130,-0.08949,0.40258,1.39887,-0.01275,0.04223,0.01299,-0.03476,-0.02514,-0.00374,0.54014,-0.03124,-0.30000,-0.66009,-3.49269,731.79187,767.83392,0.55206,11.97080,0.66050,-0.60266,6.52207,8.08167,7.47901
53.75199,0.76507,0.50474,0.10130,-0.08949,0.40258,1.39887,-0.01275,0.04223,0.01299,-0.03476,-0.02514,-0.00374,0.54014,-0.03124,-0.30000,-0.66009,-3.49269,731.79187,767.83392,0.55206,11.97157,0.66050,-0.60393,6.52207,8.08167,7.47773
53.75299,0.76507,0.50474,0.10130,-0.07742,0.40702,1.42320,-0.01275,0.04223,0.01299,-0.03476,-0.02514,-0.00374,0.54014,-0.03124,-0.30000,-0.66009,-3.49150,731.66729,767.83392,0.55187,11.97235,0.66050,-0.60520,6.52207,8.08167,7.47646
53.75400,0.76507,0.50474,0.10130,-0.07742,0.40702,1.42320,-0.01275,0.04223,0.01299,-0.03476,-0.02514,-0.00374,0.54014,-0.03124,-0.30000,-0.66009,-3.49150,731.66729,773.12475,0.55187,11.97313,0.66050,-0.60633,6.52207,8.08167,7.47533
53.75500,0.72591,0.60123,0.03649,-0.06867,0.41883,1.44876,-0.01611,0.04645,0.01299,-0.03634,-0.02055,0.01006,0.54074,-0.02650,-0.30000,-0.66050,-3.49716,732.25970,773.12475,0.55237,11.97393,0.66050,-0.60743,6.52207,8.09601,7.48857
53.75600,0.72591,0.60123,0.03649,-0.06867,0.41883,1.44876,-0.01611,0.04645,0.01299,-0.03634,-0.02055,0.01006,0.54074,-0.02650,-0.30000,-0.66050,-3.49716,732.25970,767.83392,0.55237,11.97472,0.66050,-0.60840,6.52207,8.09601,7.48760
53.75699,0.72591,0.60123,0.03649,-0.07180,0.42917,1.47586,-0.01611,0.04645,0.01299,-0.03634,-0.02055,0.01006,0.54074,-0.02650,-0.30000,-0.66050,-3.49625,732.16418,767.83392,0.55220,11.97553,0.66050,-0.60938,6.52207,8.09601,7.48662
53.75799,0.72591,0.60123,0.03649,-0.07180,0.42917,1.47586,-0.01611,0.04645,0.01299,-0.03634,-0.02055,0.01006,0.54074,-0.02650,-0.30000,-0.66050,-3.49625,732.16418,768.49133,0.55220,11.97634,0.66050,-0.61048,6.52207,8.09601,7.48552
53.75899,0.72591,0.60123,0.03649,-0.07631,0.43045,1.49691,-0.01611,0.04645,0.01299,-0.03634,-0.02055,0.01006,0.54074,-0.02650,-0.30000,-0.66050,-3.49522,732.05664,768.49133,0.55202,11.97716,0.66050,-0.61158,6.52207,8.09601,7.48442
53.75999,0.72591,0.60123,0.03649,-0.07631,0.43045,1.49691,-0.01611,0.04645,0.01299,-0.03634,-0.02055,0.01006,0.54074,-0.02650,-0.30000,-0.66050,-3.49522,732.05664,768.49133,0.55202,11.97799,0.66050,-0.61280,6.52207,8.09601,7.48320
53.76100,0.72591,0.60123,0.03649,-0.07129,0.43072,1.51081,-0.01611,0.04645,0.01299,-0.03634,-0.02055,0.01006,0.54074,-0.02650,-0.30000,-0.66050,-3.49408,731.93707,768.49133,0.55183,11.97882,0.66059,-0.61403,6.52207,8.09601,7.48197
53.76200,0.72591,0.60123,0.03649,-0.07129,0.43072,1.51081,-0.01611,0.04645,0.01299,-0.03634,-0.02055,0.01006,0.54074,-0.02650,-0.30000,-0.66050,-3.49408,731.93707,768.49133,0.55183,11.97966,0.66059,-0.61510,6.52207,8.09601,7.48090
53.76300,0.72591,0.60123,0.03649,-0.06453,0.43781,1.52602,-0.01611,0.04645,0.01299,-0.03634,-0.02055,0.01006,0.54074,-0.02650,-0.30000,-0.66050,-3.49308,731.83233,767.83392,0.55165,11.98050,0.66059,-0.61617,6.52207,8.09601,7.47983
53.76399,0.72591,0.60123,0.03649,-0.06453,0.43781,1.52602,-0.01611,0.04645,0.01299,-0.03634,-0.02055,0.01006,0.54074,-0.02650,-0.30000,-0.66050,-3.49308,731.83233,767.17767,0.55165,11.98136,0.66059,-0.61703,6.52207,8.09601,7.47897
53.76499,0.70608,0.61156,-0.03700,-0.06631,0.44402,1.54566,-0.01932,0.04953,0.01299,-0.03762,-0.01552,0.02499,0.54089,-0.01861,-0.30000,-0.66059,-3.50394,732.96929,767.17767,0.55267,11.98222,0.66059,-0.61784,6.52207,8.12093,7.50309
53.76599,0.70608,0.61156,-0.03700,-0.06631,0.44402,1.54566,-0.01932,0.04953,0.01299,-0.03762,-0.01552,0.02499,0.54089,-0.01861,-0.30000,-0.66059,-3.50394,732.96929,767.17767,0.55267,11.98308,0.66059,-0.61866,6.52207,8.12093,7.50226
53.76699,0.70608,0.61156,-0.03700,-0.06955,0.44117,1.56282,-0.01932,0.04953,0.01299,-0.03762,-0.01552,0.02499,0.54089,-0.01861,-0.30000,-0.66059,-3.50317,732.88830,767.17767,0.55251,11.98396,0.66059,-0.61949,6.52207,8.12093,7.50143
53.76800,0.70608,0.61156,-0.03700,-0.06955,0.44117,1.56282,-0.01932,0.04953,0.01299,-0.03762,-0.01552,0.02499,0.54089,-0.01861,-0.30000,-0.66059,-3.50317,732.88830,765.86853,0.55251,11.98485,0.66059,-0.62038,6.52207,8.12093,7.50055
53.76900,0.70608,0.61156,-0.03700,-0.06421,0.43674,1.57431,-0.01932,0.04953,0.01299,-0.03762,-0.01552,0.02499,0.54089,-0.01861,-0.30000,-0.66059,-3.50234,732.80194,765.86853,0.55235,11.98574,0.66059,-0.62126,6.52207,8.12093,7.49967
53.77000,0.70608,0.61156,-0.03700,-0.06421,0.43674,1.57431,-0.01932,0.04953,0.01299,-0.03762,-0.01552,0.02499,0.54089,-0.01861,-0.30000,-0.66059,-3.50234,732.80194,765.21557,0.55235,11.98664,0.66059,-0.62194,6.52207,8.12093,7.49899
53.77099,0.70608,0.61156,-0.03700,-0.05761,0.43967,1.58612,-0.01932,0.04953,0.01299,-0.03762,-0.01552,0.02499,0.54089,-0.01861,-0.30000,-0.66059,-3.50171,732.73583,765.21557,0.55220,11.98755,0.66059,-0.62261,6.52207,8.12093,7.49831
53.77199,0.70608,0.61156,-0.03700,-0.05761,0.43967,1.58612,-0.01932,0.04953,0.01299,-0.03762,-0.01552,0.02499,0.54089,-0.01861,-0.30000,-0.66059,-3.50171,732.73583,765.21557,0.55220,11.98846,0.66059,-0.62304,6.52207,8.12093,7.49788
53.77299,0.70608,0.61156,-0.03700,-0.06119,0.44297,1.60067,-0.01932,0.04953,0.01299,-0.03762,-0.01552,0.02499,0.54089,-0.01861,-0.30000,-0.66059,-3.50131,732.69409,765.21557,0.55207,11.98938,0.66059,-0.62347,6.52207,8.12093,7.49746
53.77399,0.70608,0.61156,-0.03700,-0.06119,0.44297,1.60067,-0.01932,0.04953,0.01299,-0.03762,-0.01552,0.02499,0.54089,-0.01861,-0.30000,-0.66059,-3.50131,732.69409,765.86853,0.55207,11.99031,0.66059,-0.62394,6.52207,8.12093,7.49699
53.77500,0.80097,0.46633,-0.12019,-0.06871,0.43701,1.61117,-0.01676,0.04511,0.01299,-0.03877,-0.01033,0.04063,0.54089,-0.01861,-0.30000,-0.66059,-3.49990,732.54675,763.26348,0.55185,11.99125,0.66059,-0.62441,6.52207,8.11886,7.49444
53.77600,0.80097,0.46633,-0.12019,-0.06871,0.43701,1.61117,-0.01676,0.04511,0.01299,-0.03877,-0.01033,0.04063,0.54089,-0.01861,-0.30000,-0.66059,-3.49990,732.54675,765.86853,0.55185,11.99219,0.66059,-0.62501,6.52207,8.11886,7.49384
53.77700,0.80097,0.46633,-0.12019,-0.06768,0.42839,1.61450,-0.01676,0.04511,0.01299,-0.03877,-0.01033,0.04063,0.54089,-0.01861,-0.30000,-0.66059,-3.49934,732.48803,765.86853,0.55170,11.99314,0.66059,-0.62561,6.52207,8.11886,7.49324
53.77799,0.80097,0.46633,-0.12019,-0.06768,0.42839,1.61450,-0.01676,0.04511,0.01299,-0.03877,-0.01033,0.04063,0.54089,-0.01861,-0.30000,-0.66059,-3.49934,732.48803,765.86853,0.55170,11.99410,0.66059,-0.62603,6.52207,8.11886,7.49282
53.77899,0.80097,0.46633,-0.12019,-0.06243,0.42816,1.61778,-0.01676,0.04511,0.01299,-0.03877,-0.01033,0.04063,0.54089,-0.01861,-0.30000,-0.66059,-3.49895,732.44720,765.86853,0.55157,11.99506,0.66059,-0.62645,6.52207,8.11886,7.49241
53.77999,0.80097,0.46633,-0.12019,-0.06243,0.42816,1.61778,-0.01676,0.04511,0.01299,-0.03877,-0.01033,0.04063,0.54089,-0.01861,-0.30000,-0.66059,-3.49895,732.44720,767.17767,0.55157,11.99602,0.66059,-0.62650,6.52207,8.11886,7.49235
53.78099,0.80097,0.46633,-0.12019,-0.06504,0.43164,1.62553,-0.01676,0.04511,0.01299,-0.03877,-0.01033,0.04063,0.54089,-0.01861,-0.30000,-0.66059,-3.49890,732.44207,767.17767,0.55148,11.99700,0.66070,-0.62655,6.52207,8.11886,7.49230
53.78200,0.80097,0.46633,-0.12019,-0.06504,0.43164,1.62553,-0.01676,0.04511,0.01299,-0.03877,-0.01033,0.04063,0.54089,-0.01861,-0.30000,-0.66059,-3.49890,732.44207,775.79766,0.55148,11.99798,0.66070,-0.62645,6.52207,8.11886,7.49240
53.78300,0.80097,0.46633,-0.12019,-0.07202,0.42782,1.63144,-0.01676,0.04511,0.01299,-0.03877,-0.01033,0.04063,0.54089,-0.01861,-0.30000,-0.66059,-3.49900,732.45214,788.75036,0.55140,11.99897,0.66070,-0.62635,6.52207,8.11886,7.49251
53.78400,0.80097,0.46633,-0.12019,-0.07202,0.42782,1.63144,-0.01676,0.04511,0.01299,-0.03877,-0.01033,0.04063,0.54089,-0.01861,-0.30000,-0.66059,-3.49900,732.45214,775.79766,0.55140,11.99996,0.66070,-0.62621,6.52207,8.11886,7.49264
53.78499,0.79992,0.50611,-0.19862,-0.07156,0.41999,1.63028,-0.01678,0.04720,0.01299,-0.03988,-0.00524,0.05672,0.54105,-0.00494,-0.30000,-0.66070,-3.51849,734.48931,775.79766,0.55327,12.00096,0.66070,-0.62599,6.52207,8.16024,7.53424
53.78599,0.79992,0.50611,-0.19862,-0.07156,0.41999,1.63028,-0.01678,0.04720,0.01299,-0.03988,-0.00524,0.05672,0.54105,-0.00494,-0.30000,-0.66070,-3.51849,734.48931,775.79766,0.55327,12.00196,0.66070,-0.62551,6.52207,8.16024,7.53472
53.78699,0.79992,0.50611,-0.19862,-0.06689,0.41849,1.62733,-0.01678,0.04720,0.01299,-0.03988,-0.00524,0.05672,0.54105,-0.00494,-0.30000,-0.66070,-3.51894,734.53631,775.79766,0.55322,12.00297,0.66070,-0.62503,6.52207,8.16024,7.53521
53.78799,0.79992,0.50611,-0.19862,-0.06689,0.41849,1.62733,-0.01678,0.04720,0.01299,-0.03988,-0.00524,0.05672,0.54105,-0.00494,-0.30000,-0.66070,-3.51894,734.53631,773.79132,0.55322,12.00399,0.66070,-0.62418,6.52207,8.16024,7.53605
53.78900,0.79992,0.50611,-0.19862,-0.06996,0.42016,1.62796,-0.01678,0.04720,0.01299,-0.03988,-0.00524,0.05672,0.54105,-0.00494,-0.30000,-0.66070,-3.51973,734.61907,773.79132,0.55320,12.00501,0.66070,-0.62333,6.52207,8.16024,7.53690
53.79000,0.79992,0.50611,-0.19862,-0.06996,0.42016,1.62796,-0.01678,0.04720,0.01299,-0.03988,-0.00524,0.05672,0.54105,-0.00494,-0.30000,-0.66070,-3.51973,734.61907,785.29998,0.55320,12.00604,0.66070,-0.62242,6.52207,8.16024,7.53781
53.79100,0.79992,0.50611,-0.19862,-0.07747,0.41422,1.62749,-0.01678,0.04720,0.01299,-0.03988,-0.00524,0.05672,0.54105,-0.00494,-0.30000,-0.66070,-3.52058,734.70751,773.79132,0.55319,12.00707,0.66070,-0.62151,6.52207,8.16024,7.53872
53.79199,0.79992,0.50611,-0.19862,-0.07747,0.41422,1.62749,-0.01678,0.04720,0.01299,-0.03988,-0.00524,0.05672,0.54105,-0.00494,-0.30000,-0.66070,-3.52058,734.70751,773.79132,0.55319,12.00811,0.66070,-0.62078,6.52207,8.16024,7.53945
53.79299,0.79992,0.50611,-0.19862,-0.07619,0.40326,1.62072,-0.01678,0.04720,0.01299,-0.03988,-0.00524,0.05672,0.54105,-0.00494,-0.30000,-0.66070,-3.52126,734.77880,769.14984,0.55317,12.00916,0.66070,-0.62005,6.52207,8.16024,7.54018
53.79399,0.79992,0.50611,-0.19862,-0.07619,0.40326,1.62072,-0.01678,0.04720,0.01299,-0.03988,-0.00524,0.05672,0.54105,-0.00494,-0.30000,-0.66070,-3.52126,734.77880,767.83392,0.55317,12.01021,0.66070,-0.61929,6.52207,8.16024,7.54094
53.79499,0.82438,0.42212,-0.28238,-0.06841,0.39891,1.61240,-0.01578,0.04459,0.01299,-0.04097,-0.00028,0.07288,0.54105,-0.00494,-0.30000,-0.66070,-3.52145,734.79797,766.52252,0.55309,12.01126,0.66070,-0.61854,6.52207,8.15912,7.54058
53.79600,0.82438,0.42212,-0.28238,-0.06841,0.39891,1.61240,-0.01578,0.04459,0.01299,-0.04097,-0.00028,0.07288,0.54105,-0.00494,-0.30000,-0.66070,-3.52145,734.79797,766.52252,0.55309,12.01232,0.66070,-0.61759,6.52207,8.15912,7.54153
53.79700,0.82438,0.42212,-0.28238,-0.06905,0.39997,1.60813,-0.01578,0.04459,0.01299,-0.04097,-0.00028,0.07288,0.54105,-0.00494,-0.30000,-0.66070,-3.52234,734.89086,765.21557,0.55308,12.01338,0.66070,-0.61664,6.52207,8.15912,7.54248
53.79800,0.82438,0.42212,-0.28238,-0.06905,0.39997,1.60813,-0.01578,0.04459,0.01299,-0.04097,-0.00028,0.07288,0.54105,-0.00494,-0.30000,-0.66070,-3.52234,734.89086,765.21557,0.55308,12.01445,0.66070,-0.61570,6.52207,8.15912,7.54341
53.79899,0.82438,0.42212,-0.28238,-0.07850,0.39471,1.60303,-0.01578,0.04459,0.01299,-0.04097,-0.00028,0.07288,0.54105,-0.00494,-0.30000,-0.66070,-3.52321,734.98168,765.21557,0.55307,12.01553,0.66070,-0.61477,6.52207,8.15912,7.54435
53.79999,0.82438,0.42212,-0.28238,-0.07850,0.39471,1.60303,-0.01578,0.04459,0.01299,-0.04097,-0.00028,0.07288,0.54105,-0.00494,-0.30000,-0.66070,-3.52321,734.98168,765.21557,0.55307,12.01661,0.66070,-0.61406,6.52207,8.15912,7.54506
53.80099,0.82438,0.42212,-0.28238,-0.08195,0.38320,1.59019,-0.01578,0.04459,0.01299,-0.04097,-0.00028,0.07288,0.54105,-0.00494,-0.30000,-0.66070,-3.52387,735.05065,765.21557,0.55303,12.01770,0.66040,-0.61335,6.52207,8.15912,7.54577
53.80199,0.82438,0.42212,-0.28238,-0.08195,0.38320,1.59019,-0.01578,0.04459,0.01299,-0.04097,-0.00028,0.07288,0.54105,-0.00494,-0.30000,-0.66070,-3.52387,735.05065,765.21557,0.55303,12.01879,0.66040,-0.61262,6.52207,8.15912,7.54650
53.80300,0.82438,0.42212,-0.28238,-0.07663,0.37715,1.57308,-0.01578,0.04459,0.01299,-0.04097,-0.00028,0.07288,0.54105,-0.00494,-0.30000,-0.66070,-3.52455,735.12176,765.21557,0.55300,12.01990,0.66040,-0.61189,6.52207,8.15912,7.54722
53.80400,0.82438,0.42212,-0.28238,-0.07663,0.37715,1.57308,-0.01578,0.04459,0.01299,-0.04097,-0.00028,0.07288,0.54105,-0.00494,-0.30000,-0.66070,-3.52455,735.12176,761.32135,0.55300,12.02100,0.66040,-0.61087,6.52207,8.15912,7.54824
53.80500,0.91092,0.47468,-0.35911,-0.07613,0.37719,1.55863,-0.01119,0.04758,0.01299,-0.04198,0.00440,0.08874,0.54060,0.01200,-0.30000,-0.66040,-3.55025,737.79718,761.32135,0.55547,12.02212,0.66040,-0.60975,6.52207,8.21202,7.60226
53.80599,0.91092,0.47468,-0.35911,-0.07613,0.37719,1.55863,-0.01119,0.04758,0.01299,-0.04198,0.00440,0.08874,0.54060,0.01200,-0.30000,-0.66040,-3.55025,737.79718,761.32135,0.55547,12.02324,0.66040,-0.60853,6.52207,8.21202,7.60348
53.80699,0.91092,0.47468,-0.35911,-0.08403,0.37091,1.54451,-0.01119,0.04758,0.01299,-0.04198,0.00440,0.08874,0.54060,0.01200,-0.30000,-0.66040,-3.55140,737.91601,761.32135,0.55548,12.02436,0.66040,-0.60730,6.52207,8.21202,7.60471
53.80799,0.91092,0.47468,-0.35911,-0.08403,0.37091,1.54451,-0.01119,0.04758,0.01299,-0.04198,0.00440,0.08874,0.54060,0.01200,-0.30000,-0.66040,-3.55140,737.91601,765.21557,0.55548,12.02550,0.66040,-0.60627,6.52207,8.21202,7.60574
53.80899,0.91092,0.47468,-0.35911,-0.08650,0.35597,1.52452,-0.01119,0.04758,0.01299,-0.04198,0.00440,0.08874,0.54060,0.01200,-0.30000,-0.66040,-3.55236,738.01580,765.21557,0.55547,12.02663,0.66040,-0.60524,6.52207,8.21202,7.60677
53.81000,0.91092,0.47468,-0.35911,-0.08650,0.35597,1.52452,-0.01119,0.04758,0.01299,-0.04198,0.00440,0.08874,0.54060,0.01200,-0.30000,-0.66040,-3.55236,738.01580,762.61505,0.55547,12.02777,0.66040,-0.60432,6.52207,8.21202,7.60769
53.81100,0.91092,0.47468,-0.35911,-0.07793,0.34491,1.50149,-0.01119,0.04758,0.01299,-0.04198,0.00440,0.08874,0.54060,0.01200,-0.30000,-0.66040,-3.55322,738.10498,762.61505,0.55545,12.02892,0.65970,-0.60340,6.52208,8.21202,7.60861
53.81200,0.91092,0.47468,-0.35911,-0.07793,0.34491,1.50149,-0.01119,0.04758,0.01299,-0.04198,0.00440,0.08874,0.54060,0.01200,-0.30000,-0.66040,-3.55322,738.10498,757.46655,0.55545,12.03007,0.65970,-0.60236,6.52208,8.21202,7.60965
53.81299,0.91092,0.47468,-0.35911,-0.07187,0.34267,1.48283,-0.01119,0.04758,0.01299,-0.04198,0.00440,0.08874,0.54060,0.01200,-0.30000,-0.66040,-3.55419,738.20581,756.82794,0.55544,12.03122,0.65970,-0.60132,6.52208,8.21202,7.61069
53.81399,0.91092,0.47468,-0.35911,-0.07187,0.34267,1.48283,-0.01119,0.04758,0.01299,-0.04198,0.00440,0.08874,0.54060,0.01200,-0.30000,-0.66040,-3.55419,738.20581,756.19030,0.55544,12.03237,0.65970,-0.60026,6.52208,8.21202,7.61175
53.81499,0.84661,0.35073,-0.43950,-0.07678,0.33877,1.46661,-0.01279,0.04321,0.01299,-0.04295,0.00876,0.10383,0.53955,0.03452,-0.30000,-0.65970,-3.58762,741.66973,756.82794,0.55865,12.03353,0.65970,-0.59906,6.52208,8.28134,7.68228
53.81600,0.84661,0.35073,-0.43950,-0.07678,0.33877,1.46661,-0.01279,0.04321,0.01299,-0.04295,0.00876,0.10383,0.53955,0.03452,-0.30000,-0.65970,-3.58762,741.66973,757.46655,0.55865,12.03470,0.65970,-0.59805,6.52208,8.28134,7.68329
53.81700,0.84661,0.35073,-0.43950,-0.08146,0.32777,1.44463,-0.01279,0.04321,0.01299,-0.04295,0.00876,0.10383,0.53955,0.03452,-0.30000,-0.65970,-3.58856,741.76660,762.61505,0.55864,12.03586,0.65970,-0.59705,6.52208,8.28134,7.68429
53.81800,0.84661,0.35073,-0.43950,-0.08146,0.32777,1.44463,-0.01279,0.04321,0.01299,-0.04295,0.00876,0.10383,0.53955,0.03452,-0.30000,-0.65970,-3.58856,741.76660,762.61505,0.55864,12.03703,0.65970,-0.59617,6.52208,8.28134,7.68517
53.81900,0.84661,0.35073,-0.43950,-0.07636,0.31880,1.41724,-0.01279,0.04321,0.01299,-0.04295,0.00876,0.10383,0.53955,0.03452,-0.30000,-0.65970,-3.58938,741.85144,762.61505,0.55861,12.03820,0.65970,-0.59529,6.52208,8.28134,7.68605
53.81999,0.84661,0.35073,-0.43950,-0.07636,0.31880,1.41724,-0.01279,0.04321,0.01299,-0.04295,0.00876,0.10383,0.53955,0.03452,-0.30000,-0.65970,-3.58938,741.85144,758.10632,0.55861,12.03937,0.65970,-0.59433,6.52208,8.28134,7.68701
53.82099,0.84661,0.35073,-0.43950,-0.07010,0.31675,1.39245,-0.01279,0.04321,0.01299,-0.04295,0.00876,0.10383,0.53955,0.03452,-0.30000,-0.65970,-3.59028,741.94439,762.61505,0.55859,12.04055,0.65970,-0.59336,6.52208,8.28134,7.68797
53.82199,0.84661,0.35073,-0.43950,-0.07010,0.31675,1.39245,-0.01279,0.04321,0.01299,-0.04295,0.00876,0.10383,0.53955,0.03452,-0.30000,-0.65970,-3.59028,741.94439,762.61505,0.55859,12.04173,0.65970,-0.59240,6.52208,8.28134,7.68894
53.82300,0.84661,0.35073,-0.43950,-0.07130,0.31202,1.37144,-0.01279,0.04321,0.01299,-0.04295,0.00876,0.10383,0.53955,0.03452,-0.30000,-0.65970,-3.59118,742.03723,763.91308,0.55857,12.04291,0.65970,-0.59144,6.52208,8.28134,7.68990
53.82400,0.84661,0.35073,-0.43950,-0.07130,0.31202,1.37144,-0.01279,0.04321,0.01299,-0.04295,0.00876,0.10383,0.53955,0.03452,-0.30000,-0.65970,-3.59118,742.03723,763.91308,0.55857,12.04410,0.65970,-0.59076,6.52208,8.28134,7.69058
53.82500,0.84344,0.35528,-0.50907,-0.07198,0.29888,1.34759,-0.01333,0.04287,0.01299,-0.04377,0.01272,0.11783,0.53955,0.03452,-0.30000,-0.65970,-3.59179,742.10034,763.91308,0.55852,12.04529,0.65970,-0.59007,6.52208,8.28128,7.69121
53.82600,0.84344,0.35528,-0.50907,-0.07198,0.29888,1.34759,-0.01333,0.04287,0.01299,-0.04377,0.01272,0.11783,0.53955,0.03452,-0.30000,-0.65970,-3.59179,742.10034,763.91308,0.55852,12.04648,0.65970,-0.58965,6.52208,8.28128,7.69163
53.82699,0.84344,0.35528,-0.50907,-0.06452,0.28729,1.32005,-0.01333,0.04287,0.01299,-0.04377,0.01272,0.11783,0.53955,0.03452,-0.30000,-0.65970,-3.59218,742.14093,762.61505,0.55845,12.04768,0.65970,-0.58923,6.52208,8.28128,7.69205
53.82799,0.84344,0.35528,-0.50907,-0.06452,0.28729,1.32005,-0.01333,0.04287,0.01299,-0.04377,0.01272,0.11783,0.53955,0.03452,-0.30000,-0.65970,-3.59218,742.14093,762.61505,0.55845,12.04887,0.65970,-0.58882,6.52208,8.28128,7.69246
53.82899,0.84344,0.35528,-0.50907,-0.05831,0.28479,1.29513,-0.01333,0.04287,0.01299,-0.04377,0.01272,0.11783,0.53955,0.03452,-0.30000,-0.65970,-3.59257,742.18072,763.91308,0.55837,12.05007,0.65970,-0.58840,6.52208,8.28128,7.69287
53.83000,0.84344,0.35528,-0.50907,-0.05831,0.28479,1.29513,-0.01333,0.04287,0.01299,-0.04377,0.01272,0.11783,0.53955,0.03452,-0.30000,-0.65970,-3.59257,742.18072,763.91308,0.55837,12.05128,0.65970,-0.58797,6.52208,8.28128,7.69331
53.83100,0.84344,0.35528,-0.50907,-0.06259,0.28238,1.27302,-0.01333,0.04287,0.01299,-0.04377,0.01272,0.11783,0.53955,0.03452,-0.30000,-0.65970,-3.59297,742.22222,763.91308,0.55830,12.05248,0.65899,-0.58754,6.52208,8.28128,7.69374
53.83200,0.84344,0.35528,-0.50907,-0.06259,0.28238,1.27302,-0.01333,0.04287,0.01299,-0.04377,0.01272,0.11783,0.53955,0.03452,-0.30000,-0.65970,-3.59297,742.22222,763.91308,0.55830,12.05369,0.65899,-0.58732,6.52208,8.28128,7.69395
53.83300,0.84344,0.35528,-0.50907,-0.06753,0.27106,1.24585,-0.01333,0.04287,0.01299,-0.04377,0.01272,0.11783,0.53955,0.03452,-0.30000,-0.65970,-3.59317,742.24279,763.91308,0.55821,12.05489,0.65899,-0.58711,6.52208,8.28128,7.69417
53.83399,0.84344,0.35528,-0.50907,-0.06753,0.27106,1.24585,-0.01333,0.04287,0.01299,-0.04377,0.01272,0.11783,0.53955,0.03452,-0.30000,-0.65970,-3.59317,742.24279,763.91308,0.55821,12.05610,0.65899,-0.58716,6.52208,8.28128,7.69412
53.83499,1.01164,0.35324,-0.57282,-0.06122,0.25827,1.21187,-0.00513,0.04298,0.01299,-0.04439,0.01629,0.13059,0.53849,0.05567,-0.30000,-0.65899,-3.62403,745.42333,763.91308,0.56114,12.05732,0.65899,-0.58707,6.52208,8.34733,7.76025
53.83599,1.01164,0.35324,-0.57282,-0.06122,0.25827,1.21187,-0.00513,0.04298,0.01299,-0.04439,0.01629,0.13059,0.53849,0.05567,-0.30000,-0.65899,-3.62403,745.42333,764.56378,0.56114,12.05853,0.65899,-0.58698,6.52208,8.34733,7.76034
53.83700,1.01164,0.35324,-0.57282,-0.05181,0.25353,1.17898,-0.00513,0.04298,0.01299,-0.04439,0.01629,0.13059,0.53849,0.05567,-0.30000,-0.65899,-3.62412,745.43261,764.56378,0.56104,12.05974,0.65899,-0.58688,6.52208,8.34733,7.76044
53.83800,1.01164,0.35324,-0.57282,-0.05181,0.25353,1.17898,-0.00513,0.04298,0.01299,-0.04439,0.01629,0.13059,0.53849,0.05567,-0.30000,-0.65899,-3.62412,745.43261,766.52252,0.56104,12.06096,0.65899,-0.58669,6.52208,8.34733,7.76063
53.83900,1.01164,0.35324,-0.57282,-0.05273,0.25065,1.15061,-0.00513,0.04298,0.01299,-0.04439,0.01629,0.13059,0.53849,0.05567,-0.30000,-0.65899,-3.62430,745.45080,766.52252,0.56094,12.06218,0.65899,-0.58650,6.52208,8.34733,7.76082
53.84000,1.01164,0.35324,-0.57282,-0.05273,0.25065,1.15061,-0.00513,0.04298,0.01299,-0.04439,0.01629,0.13059,0.53849,0.05567,-0.30000,-0.65899,-3.62430,745.45080,766.52252,0.56094,12.06340,0.65899,-0.58649,6.52208,8.34733,7.76083
53.84099,1.01164,0.35324,-0.57282,-0.05786,0.23995,1.12040,-0.00513,0.04298,0.01299,-0.04439,0.01629,0.13059,0.53849,0.05567,-0.30000,-0.65899,-3.62431,745.45184,764.56378,0.56083,12.06462,0.65899,-0.58648,6.52208,8.34733,7.76084
53.84199,1.01164,0.35324,-0.57282,-0.05786,0.23995,1.12040,-0.00513,0.04298,0.01299,-0.04439,0.01629,0.13059,0.53849,0.05567,-0.30000,-0.65899,-3.62431,745.45184,763.91308,0.56083,12.06585,0.65899,-0.58673,6.52208,8.34733,7.76059
53.84299,1.01164,0.35324,-0.57282,-0.05315,0.22734,1.08522,-0.00513,0.04298,0.01299,-0.04439,0.01629,0.13059,0.53849,0.05567,-0.30000,-0.65899,-3.62408,745.42779,763.91308,0.56069,12.06707,0.65899,-0.58698,6.52208,8.34733,7.76034
53.84400,1.01164,0.35324,-0.57282,-0.05315,0.22734,1.08522,-0.00513,0.04298,0.01299,-0.04439,0.01629,0.13059,0.53849,0.05567,-0.30000,-0.65899,-3.62408,745.42779,763.91308,0.56069,12.06830,0.65899,-0.58717,6.52208,8.34733,7.76015
53.84500,0.88266,0.33551,-0.63017,-0.04271,0.22365,1.05147,-0.00865,0.04267,0.01299,-0.04491,0.01943,0.14194,0.53849,0.05567,-0.30000,-0.65899,-3.62394,745.41406,766.52252,0.56056,12.06952,0.65899,-0.58736,6.52208,8.34742,7.76005
53.84600,0.88266,0.33551,-0.63017,-0.04271,0.22365,1.05147,-0.00865,0.04267,0.01299,-0.04491,0.01943,0.14194,0.53849,0.05567,-0.30000,-0.65899,-3.62394,745.41406,766.52252,0.56056,12.07075,0.65899,-0.58730,6.52208,8.34742,7.76011
53.84700,0.88266,0.33551,-0.63017,-0.04059,0.22392,1.02264,-0.00865,0.04267,0.01299,-0.04491,0.01943,0.14194,0.53849,0.05567,-0.30000,-0.65899,-3.62399,745.41931,764.56378,0.56045,12.07198,0.65899,-0.58725,6.52208,8.34742,7.76016
53.84799,0.88266,0.33551,-0.63017,-0.04059,0.22392,1.02264,-0.00865,0.04267,0.01299,-0.04491,0.01943,0.14194,0.53849,0.05567,-0.30000,-0.65899,-3.62399,745.41931,756.19030,0.56045,12.07321,0.65899,-0.58722,6.52208,8.34742,7.76020
53.84899,0.88266,0.33551,-0.63017,-0.04404,0.21606,0.99181,-0.00865,0.04267,0.01299,-0.04491,0.01943,0.14194,0.53849,0.05567,-0.30000,-0.65899,-3.62402,745.42236,756.19030,0.56034,12.07445,0.65899,-0.58719,6.52208,8.34742,7.76023
53.84999,0.88266,0.33551,-0.63017,-0.04404,0.21606,0.99181,-0.00865,0.04267,0.01299,-0.04491,0.01943,0.14194,0.53849,0.05567,-0.30000,-0.65899,-3.62402,745.42236,764.56378,0.56034,12.07568,0.65899,-0.58737,6.52208,8.34742,7.76004
53.85100,0.88266,0.33551,-0.63017,-0.03869,0.20322,0.95392,-0.00865,0.04267,0.01299,-0.04491,0.01943,0.14194,0.53849,0.05567,-0.30000,-0.65899,-3.62385,745.40399,764.56378,0.56021,12.07691,0.65750,-0.58755,6.52210,8.34742,7.75986
53.85200,0.88266,0.33551,-0.63017,-0.03869,0.20322,0.95392,-0.00865,0.04267,0.01299,-0.04491,0.01943,0.14194,0.53849,0.05567,-0.30000,-0.65899,-3.62385,745.40399,756.82794,0.56021,12.07815,0.65750,-0.58771,6.52210,8.34742,7.75970
53.85300,0.88266,0.33551,-0.63017,-0.02573,0.19812,0.91541,-0.00865,0.04267,0.01299,-0.04491,0.01943,0.14194,0.53849,0.05567,-0.30000,-0.65899,-3.62371,745.38897,764.56378,0.56008,12.07938,0.65750,-0.58787,6.52210,8.34742,7.75955
53.85400,0.88266,0.33551,-0.63017,-0.02573,0.19812,0.91541,-0.00865,0.04267,0.01299,-0.04491,0.01943,0.14194,0.53849,0.05567,-0.30000,-0.65899,-3.62371,745.38897,767.17767,0.56008,12.08062,0.65750,-0.58780,6.52210,8.34742,7.75961
53.85499,1.06076,0.32711,-0.67902,-0.02001,0.20000,0.88287,0.00005,0.04274,0.01299,-0.04523,0.02218,0.15165,0.53625,0.08193,-0.30000,-0.65750,-3.66370,749.49102,767.17767,0.56388,12.08186,0.65750,-0.58757,6.52210,8.43276,7.84519
53.85599,1.06076,0.32711,-0.67902,-0.02001,0.20000,0.88287,0.00005,0.04274,0.01299,-0.04523,0.02218,0.15165,0.53625,0.08193,-0.30000,-0.65750,-3.66370,749.49102,767.17767,0.56388,12.08309,0.65750,-0.58737,6.52210,8.43276,7.84539
53.85699,1.06076,0.32711,-0.67902,-0.02276,0.19710,0.85174,0.00005,0.04274,0.01299,-0.04523,0.02218,0.15165,0.53625,0.08193,-0.30000,-0.65750,-3.66389,749.51062,767.17767,0.56379,12.08433,0.65750,-0.58716,6.52210,8.43276,7.84560
53.85800,1.06076,0.32711,-0.67902,-0.02276,0.19710,0.85174,0.00005,0.04274,0.01299,-0.04523,0.02218,0.15165,0.53625,0.08193,-0.30000,-0.65750,-3.66389,749.51062,767.17767,0.56379,12.08557,0.65750,-0.58719,6.52210,8.43276,7.84556
53.85900,1.06076,0.32711,-0.67902,-0.02020,0.18908,0.81569,0.00005,0.04274,0.01299,-0.04523,0.02218,0.15165,0.53625,0.08193,-0.30000,-0.65750,-3.66386,749.50744,767.17767,0.56367,12.08682,0.65750,-0.58723,6.52210,8.43276,7.84553
53.86000,1.06076,0.32711,-0.67902,-0.02020,0.18908,0.81569,0.00005,0.04274,0.01299,-0.04523,0.02218,0.15165,0.53625,0.08193,-0.30000,-0.65750,-3.66386,749.50744,767.17767,0.56367,12.08806,0.65750,-0.58725,6.52210,8.43276,7.84551
53.86100,1.06076,0.32711,-0.67902,-0.00977,0.18649,0.77874,0.00005,0.04274,0.01299,-0.04523,0.02218,0.15165,0.53625,0.08193,-0.30000,-0.65750,-3.66384,749.50415,765.21557,0.56355,12.08931,0.65570,-0.58728,6.52211,8.43276,7.84548
53.86199,1.06076,0.32711,-0.67902,-0.00977,0.18649,0.77874,0.00005,0.04274,0.01299,-0.04523,0.02218,0.15165,0.53625,0.08193,-0.30000,-0.65750,-3.66384,749.50415,764.56378,0.56355,12.09056,0.65570,-0.58704,6.52211,8.43276,7.84572
53.86299,1.06076,0.32711,-0.67902,-0.00396,0.18921,0.74743,0.00005,0.04274,0.01299,-0.04523,0.02218,0.15165,0.53625,0.08193,-0.30000,-0.65750,-3.66406,749.52691,764.56378,0.56345,12.09182,0.65570,-0.58680,6.52211,8.43276,7.84596
53.86399,1.06076,0.32711,-0.67902,-0.00396,0.18921,0.74743,0.00005,0.04274,0.01299,-0.04523,0.02218,0.15165,0.53625,0.08193,-0.30000,-0.65750,-3.66406,749.52691,764.56378,0.56345,12.09307,0.65570,-0.58648,6.52211,8.43276,7.84628
53.86500,1.04356,0.29270,-0.72051,-0.00536,0.18565,0.71836,0.00273,0.04155,0.01299,-0.04528,0.02463,0.15964,0.53355,0.10269,-0.30000,-0.65570,-3.69713,752.90185,764.56378,0.56655,12.09433,0.65570,-0.58602,6.52211,8.50280,7.91677
53.86600,1.04356,0.29270,-0.72051,-0.00536,0.18565,0.71836,0.00273,0.04155,0.01299,-0.04528,0.02463,0.15964,0.53355,0.10269,-0.30000,-0.65570,-3.69713,752.90185,763.26348,0.56655,12.09559,0.65570,-0.58571,6.52211,8.50280,7.91708
53.86700,1.04356,0.29270,-0.72051,-0.00156,0.17472,0.68468,0.00273,0.04155,0.01299,-0.04528,0.02463,0.15964,0.53355,0.10269,-0.30000,-0.65570,-3.69742,752.93121,764.56378,0.56646,12.09685,0.65570,-0.58540,6.52211,8.50280,7.91739
53.86800,1.04356,0.29270,-0.72051,-0.00156,0.17472,0.68468,0.00273,0.04155,0.01299,-0.04528,0.02463,0.15964,0.53355,0.10269,-0.30000,-0.65570,-3.69742,752.93121,763.26348,0.56646,12.09811,0.65570,-0.58510,6.52211,8.50280,7.91769
53.86899,1.04356,0.29270,-0.72051,0.01047,0.16862,0.64914,0.00273,0.04155,0.01299,-0.04528,0.02463,0.15964,0.53355,0.10269,-0.30000,-0.65570,-3.69770,752.96002,763.26348,0.56637,12.09938,0.65570,-0.58479,6.52211,8.50280,7.91800
53.86999,1.04356,0.29270,-0.72051,0.01047,0.16862,0.64914,0.00273,0.04155,0.01299,-0.04528,0.02463,0.15964,0.53355,0.10269,-0.30000,-0.65570,-3.69770,752.96002,763.26348,0.56637,12.10065,0.65570,-0.58427,6.52211,8.50280,7.91852
53.87099,1.04356,0.29270,-0.72051,0.01809,0.17041,0.61884,0.00273,0.04155,0.01299,-0.04528,0.02463,0.15964,0.53355,0.10269,-0.30000,-0.65570,-3.69819,753.00872,763.26348,0.56630,12.10191,0.65329,-0.58374,6.52214,8.50280,7.91905
53.87200,1.04356,0.29270,-0.72051,0.01809,0.17041,0.61884,0.00273,0.04155,0.01299,-0.04528,0.02463,0.15964,0.53355,0.10269,-0.30000,-0.65570,-3.69819,753.00872,763.26348,0.56630,12.10318,0.65329,-0.58313,6.52214,8.50280,7.91967
53.87300,1.04356,0.29270,-0.72051,0.01750,0.16846,0.59168,0.00273,0.04155,0.01299,-0.04528,0.02463,0.15964,0.53355,0.10269,-0.30000,-0.65570,-3.69877,753.06744,764.56378,0.56624,12.10444,0.65329,-0.58251,6.52214,8.50280,7.92028
53.87400,1.04356,0.29270,-0.72051,0.01750,0.16846,0.59168,0.00273,0.04155,0.01299,-0.04528,0.02463,0.15964,0.53355,0.10269,-0.30000,-0.65570,-3.69877,753.06744,763.91308,0.56624,12.10571,0.65329,-0.58205,6.52214,8.50280,7.92074
53.87500,1.09955,0.28133,-0.75301,0.02200,0.15822,0.56026,0.00805,0.04104,0.01299,-0.04508,0.02693,0.16603,0.52994,0.13144,-0.30000,-0.65329,-3.74468,757.72717,763.91308,0.57056,12.10697,0.65329,-0.58140,6.52214,8.60001,8.01860
53.87599,1.09955,0.28133,-0.75301,0.02200,0.15822,0.56026,0.00805,0.04104,0.01299,-0.04508,0.02693,0.16603,0.52994,0.13144,-0.30000,-0.65329,-3.74468,757.72717,763.91308,0.57056,12.10823,0.65329,-0.58084,6.52214,8.60001,8.01916
53.87699,1.09955,0.28133,-0.75301,0.03697,0.15042,0.52573,0.00805,0.04104,0.01299,-0.04508,0.02693,0.16603,0.52994,0.13144,-0.30000,-0.65329,-3.74521,757.77990,763.91308,0.57049,12.10950,0.65329,-0.58029,6.52214,8.60001,8.01972
53.87799,1.09955,0.28133,-0.75301,0.03697,0.15042,0.52573,0.00805,0.04104,0.01299,-0.04508,0.02693,0.16603,0.52994,0.13144,-0.30000,-0.65329,-3.74521,757.77990,763.91308,0.57049,12.11076,0.65329,-0.57959,6.52214,8.60001,8.02042
53.87900,1.09955,0.28133,-0.75301,0.04889,0.15055,0.49524,0.00805,0.04104,0.01299,-0.04508,0.02693,0.16603,0.52994,0.13144,-0.30000,-0.65329,-3.74586,757.84606,763.91308,0.57043,12.11202,0.65329,-0.57889,6.52214,8.60001,8.02112
53.88000,1.09955,0.28133,-0.75301,0.04889,0.15055,0.49524,0.00805,0.04104,0.01299,-0.04508,0.02693,0.16603,0.52994,0.13144,-0.30000,-0.65329,-3.74586,757.84606,767.83392,0.57043,12.11328,0.65329,-0.57809,6.52214,8.60001,8.02191
53.88100,1.09955,0.28133,-0.75301,0.05004,0.14892,0.46795,0.00805,0.04104,0.01299,-0.04508,0.02693,0.16603,0.52994,0.13144,-0.30000,-0.65329,-3.74660,757.92077,767.83392,0.57039,12.11455,0.65329,-0.57730,6.52214,8.60001,8.02270
53.88199,1.09955,0.28133,-0.75301,0.05004,0.14892,0.46795,0.00805,0.04104,0.01299,-0.04508,0.02693,0.16603,0.52994,0.13144,-0.30000,-0.65329,-3.74660,757.92077,767.83392,0.57039,12.11581,0.65329,-0.57665,6.52214,8.60001,8.02336
53.88299,1.09955,0.28133,-0.75301,0.05297,0.13967,0.43638,0.00805,0.04104,0.01299,-0.04508,0.02693,0.16603,0.52994,0.13144,-0.30000,-0.65329,-3.74721,757.98266,767.83392,0.57033,12.11707,0.65329,-0.57599,6.52214,8.60001,8.02401
53.88399,1.09955,0.28133,-0.75301,0.05297,0.13967,0.43638,0.00805,0.04104,0.01299,-0.04508,0.02693,0.16603,0.52994,0.13144,-0.30000,-0.65329,-3.74721,757.98266,767.83392,0.57033,12.11833,0.65329,-0.57544,6.52214,8.60001,8.02456
53.88499,0.91204,0.27959,-0.77765,0.06735,0.13204,0.40075,0.00148,0.04112,0.01299,-0.04455,0.02893,0.17092,0.52994,0.13144,-0.30000,-0.65329,-3.74761,758.02319,767.83392,0.57025,12.11959,0.65329,-0.57489,6.52214,8.59977,8.02487
53.88600,0.91204,0.27959,-0.77765,0.06735,0.13204,0.40075,0.00148,0.04112,0.01299,-0.04455,0.02893,0.17092,0.52994,0.13144,-0.30000,-0.65329,-3.74761,758.02319,767.83392,0.57025,12.12086,0.65329,-0.57421,6.52214,8.59977,8.02555
53.88700,0.91204,0.27959,-0.77765,0.08249,0.13258,0.36897,0.00148,0.04112,0.01299,-0.04455,0.02893,0.17092,0.52994,0.13144,-0.30000,-0.65329,-3.74825,758.08758,777.81445,0.57019,12.12212,0.65329,-0.57353,6.52214,8.59977,8.02623
53.88800,0.91204,0.27959,-0.77765,0.08249,0.13258,0.36897,0.00148,0.04112,0.01299,-0.04455,0.02893,0.17092,0.52994,0.13144,-0.30000,-0.65329,-3.74825,758.08758,777.81445,0.57019,12.12339,0.65329,-0.57271,6.52214,8.59977,8.02705
53.88899,0.91204,0.27959,-0.77765,0.08749,0.13239,0.34208,0.00148,0.04112,0.01299,-0.04455,0.02893,0.17092,0.52994,0.13144,-0.30000,-0.65329,-3.74901,758.16467,777.81445,0.57014,12.12466,0.65329,-0.57190,6.52214,8.59977,8.02786
53.88999,0.91204,0.27959,-0.77765,0.08749,0.13239,0.34208,0.00148,0.04112,0.01299,-0.04455,0.02893,0.17092,0.52994,0.13144,-0.30000,-0.65329,-3.74901,758.16467,777.81445,0.57014,12.12592,0.65329,-0.57120,6.52214,8.59977,8.02857
53.89099,0.91204,0.27959,-0.77765,0.09059,0.12380,0.31258,0.00148,0.04112,0.01299,-0.04455,0.02893,0.17092,0.52994,0.13144,-0.30000,-0.65329,-3.74967,758.22937,777.81445,0.57009,12.12719,0.65050,-0.57049,6.52216,8.59977,8.02927
53.89199,0.91204,0.27959,-0.77765,0.09059,0.12380,0.31258,0.00148,0.04112,0.01299,-0.04455,0.02893,0.17092,0.52994,0.13144,-0.30000,-0.65329,-3.74967,758.22937,769.80950,0.57009,12.12846,0.65050,-0.56993,6.52216,8.59977,8.02983
53.89300,0.91204,0.27959,-0.77765,0.10238,0.11462,0.27853,0.00148,0.04112,0.01299,-0.04455,0.02893,0.17092,0.52994,0.13144,-0.30000,-0.65329,-3.75019,758.28253,769.80950,0.57002,12.12972,0.65050,-0.56937,6.52216,8.59977,8.03039
53.89400,0.91204,0.27959,-0.77765,0.10238,0.11462,0.27853,0.00148,0.04112,0.01299,-0.04455,0.02893,0.17092,0.52994,0.13144,-0.30000,-0.65329,-3.75019,758.28253,769.80950,0.57002,12.13099,0.65050,-0.56868,6.52216,8.59977,8.03108
53.89500,1.08056,0.22994,-0.79691,0.11623,0.11295,0.24650,0.00865,0.03892,0.01299,-0.04357,0.03062,0.17430,0.52574,0.15909,-0.30000,-0.65050,-3.79538,762.83709,824.99804,0.57423,12.13226,0.65050,-0.56780,6.52216,8.69495,8.12715
53.89599,1.08056,0.22994,-0.79691,0.11623,0.11295,0.24650,0.00865,0.03892,0.01299,-0.04357,0.03062,0.17430,0.52574,0.15909,-0.30000,-0.65050,-3.79538,762.83709,769.80950,0.57423,12.13353,0.65050,-0.56673,6.52216,8.69495,8.12822
53.89699,1.08056,0.22994,-0.79691,0.12289,0.11183,0.21798,0.00865,0.03892,0.01299,-0.04357,0.03062,0.17430,0.52574,0.15909,-0.30000,-0.65050,-3.79637,762.93713,769.80950,0.57420,12.13480,0.65050,-0.56567,6.52216,8.69495,8.12928
53.89799,1.08056,0.22994,-0.79691,0.12289,0.11183,0.21798,0.00865,0.03892,0.01299,-0.04357,0.03062,0.17430,0.52574,0.15909,-0.30000,-0.65050,-3.79637,762.93713,767.83392,0.57420,12.13607,0.65050,-0.56466,6.52216,8.69495,8.13029
53.89899,1.08056,0.22994,-0.79691,0.12927,0.10329,0.18570,0.00865,0.03892,0.01299,-0.04357,0.03062,0.17430,0.52574,0.15909,-0.30000,-0.65050,-3.79731,763.03161,765.86853,0.57417,12.13734,0.65050,-0.56365,6.52216,8.69495,8.13130
53.90000,1.08056,0.22994,-0.79691,0.12927,0.10329,0.18570,0.00865,0.03892,0.01299,-0.04357,0.03062,0.17430,0.52574,0.15909,-0.30000,-0.65050,-3.79731,763.03161,765.86853,0.57417,12.13861,0.65050,-0.56276,6.52216,8.69495,8.13219
53.90100,1.08056,0.22994,-0.79691,0.14433,0.09460,0.14737,0.00865,0.03892,0.01299,-0.04357,0.03062,0.17430,0.52574,0.15909,-0.30000,-0.65050,-3.79815,763.11444,764.56378,0.57413,12.13988,0.64840,-0.56186,6.52218,8.69495,8.13309
53.90200,1.08056,0.22994,-0.79691,0.14433,0.09460,0.14737,0.00865,0.03892,0.01299,-0.04357,0.03062,0.17430,0.52574,0.15909,-0.30000,-0.65050,-3.79815,763.11444,764.56378,0.57413,12.14115,0.64840,-0.56082,6.52218,8.69495,8.13413
53.90299,1.08056,0.22994,-0.79691,0.15997,0.09494,0.11073,0.00865,0.03892,0.01299,-0.04357,0.03062,0.17430,0.52574,0.15909,-0.30000,-0.65050,-3.79913,763.21264,764.56378,0.57410,12.14242,0.64840,-0.55977,6.52218,8.69495,8.13518
53.90399,1.08056,0.22994,-0.79691,0.15997,0.09494,0.11073,0.00865,0.03892,0.01299,-0.04357,0.03062,0.17430,0.52574,0.15909,-0.30000,-0.65050,-3.79913,763.21264,764.56378,0.57410,12.14369,0.64840,-0.55849,6.52218,8.69495,8.13646
53.90499,1.14435,0.24476,-0.80576,0.16535,0.09777,0.08017,0.01490,0.03914,0.01299,-0.04213,0.03198,0.17614,0.52259,0.17935,-0.30000,-0.64840,-3.83354,766.66137,764.56378,0.57726,12.14496,0.64840,-0.55707,6.52218,8.76594,8.20887
53.90599,1.14435,0.24476,-0.80576,0.16535,0.09777,0.08017,0.01490,0.03914,0.01299,-0.04213,0.03198,0.17614,0.52259,0.17935,-0.30000,-0.64840,-3.83354,766.66137,765.86853,0.57726,12.14622,0.64840,-0.55567,6.52218,8.76594,8.21027
53.90700,1.14435,0.24476,-0.80576,0.16804,0.09292,0.04994,0.01490,0.03914,0.01299,-0.04213,0.03198,0.17614,0.52259,0.17935,-0.30000,-0.64840,-3.83485,766.79223,765.86853,0.57726,12.14749,0.64840,-0.55427,6.52218,8.76594,8.21167
53.90800,1.14435,0.24476,-0.80576,0.16804,0.09292,0.04994,0.01490,0.03914,0.01299,-0.04213,0.03198,0.17614,0.52259,0.17935,-0.30000,-0.64840,-3.83485,766.79223,771.79522,0.57726,12.14875,0.64840,-0.55297,6.52218,8.76594,8.21297
53.90900,1.14435,0.24476,-0.80576,0.18067,0.08518,0.01609,0.01490,0.03914,0.01299,-0.04213,0.03198,0.17614,0.52259,0.17935,-0.30000,-0.64840,-3.83606,766.91333,771.79522,0.57726,12.15001,0.64840,-0.55167,6.52218,8.76594,8.21426
53.90999,1.14435,0.24476,-0.80576,0.18067,0.08518,0.01609,0.01490,0.03914,0.01299,-0.04213,0.03198,0.17614,0.52259,0.17935,-0.30000,-0.64840,-3.83606,766.91333,771.79522,0.57726,12.15127,0.64840,-0.55023,6.52218,8.76594,8.21571
53.91099,1.14435,0.24476,-0.80576,0.19752,0.08436,-0.01640,0.01490,0.03914,0.01299,-0.04213,0.03198,0.17614,0.52259,0.17935,-0.30000,-0.64840,-3.83741,767.04827,771.79522,0.57727,12.15252,0.64840,-0.54878,6.52218,8.76594,8.21715
53.91199,1.14435,0.24476,-0.80576,0.19752,0.08436,-0.01640,0.01490,0.03914,0.01299,-0.04213,0.03198,0.17614,0.52259,0.17935,-0.30000,-0.64840,-3.83741,767.04827,769.80950,0.57727,12.15378,0.64840,-0.54710,6.52218,8.76594,8.21884
53.91299,1.14435,0.24476,-0.80576,0.20556,0.08639,-0.04452,0.01490,0.03914,0.01299,-0.04213,0.03198,0.17614,0.52259,0.17935,-0.30000,-0.64840,-3.83898,767.20550,771.79522,0.57730,12.15503,0.64840,-0.54541,6.52218,8.76594,8.22052
53.91400,1.14435,0.24476,-0.80576,0.20556,0.08639,-0.04452,0.01490,0.03914,0.01299,-0.04213,0.03198,0.17614,0.52259,0.17935,-0.30000,-0.64840,-3.83898,767.20550,775.79766,0.57730,12.15627,0.64840,-0.54377,6.52218,8.76594,8.22217
53.91500,0.92769,0.24903,-0.80687,0.20889,0.08201,-0.07423,0.00774,0.03955,0.01299,-0.04020,0.03315,0.17633,0.52259,0.17935,-0.30000,-0.64840,-3.84025,767.33251,777.81445,0.57730,12.15752,0.64840,-0.54212,6.52218,8.76537,8.22325
53.91600,0.92769,0.24903,-0.80687,0.20889,0.08201,-0.07423,0.00774,0.03955,0.01299,-0.04020,0.03315,0.17633,0.52259,0.17935,-0.30000,-0.64840,-3.84025,767.33251,781.19921,0.57730,12.15876,0.64840,-0.54064,6.52218,8.76537,8.22472
53.91699,0.92769,0.24903,-0.80687,0.22031,0.07585,-0.10938,0.00774,0.03955,0.01299,-0.04020,0.03315,0.17633,0.52259,0.17935,-0.30000,-0.64840,-3.84163,767.47045,777.81445,0.57731,12.16001,0.64840,-0.53916,6.52218,8.76537,8.22620
53.91799,0.92769,0.24903,-0.80687,0.22031,0.07585,-0.10938,0.00774,0.03955,0.01299,-0.04020,0.03315,0.17633,0.52259,0.17935,-0.30000,-0.64840,-3.84163,767.47045,777.81445,0.57731,12.16124,0.64840,-0.53759,6.52218,8.76537,8.22778
53.91899,0.92769,0.24903,-0.80687,0.23675,0.07812,-0.14381,0.00774,0.03955,0.01299,-0.04020,0.03315,0.17633,0.52259,0.17935,-0.30000,-0.64840,-3.84311,767.61761,775.79766,0.57733,12.16248,0.64840,-0.53601,6.52218,8.76537,8.22936
53.91999,0.92769,0.24903,-0.80687,0.23675,0.07812,-0.14381,0.00774,0.03955,0.01299,-0.04020,0.03315,0.17633,0.52259,0.17935,-0.30000,-0.64840,-3.84311,767.61761,775.79766,0.57733,12.16372,0.64840,-0.53420,6.52218,8.76537,8.23116
53.92100,0.92769,0.24903,-0.80687,0.24573,0.08441,-0.17243,0.00774,0.03955,0.01299,-0.04020,0.03315,0.17633,0.52259,0.17935,-0.30000,-0.64840,-3.84479,767.78405,775.79766,0.57737,12.16495,0.64499,-0.53240,6.52222,8.76537,8.23297
53.92200,0.92769,0.24903,-0.80687,0.24573,0.08441,-0.17243,0.00774,0.03955,0.01299,-0.04020,0.03315,0.17633,0.52259,0.17935,-0.30000,-0.64840,-3.84479,767.78405,775.79766,0.57737,12.16618,0.64499,-0.53066,6.52222,8.76537,8.23471
53.92300,0.92769,0.24903,-0.80687,0.24972,0.08308,-0.20034,0.00774,0.03955,0.01299,-0.04020,0.03315,0.17633,0.52259,0.17935,-0.30000,-0.64840,-3.84642,767.94635,775.79766,0.57741,12.16740,0.64499,-0.52892,6.52222,8.76537,8.23645
53.92399,0.92769,0.24903,-0.80687,0.24972,0.08308,-0.20034,0.00774,0.03955,0.01299,-0.04020,0.03315,0.17633,0.52259,0.17935,-0.30000,-0.64840,-3.84642,767.94635,772.45947,0.57741,12.16863,0.64499,-0.52744,6.52222,8.76537,8.23793
53.92499,1.05790,0.21320,-0.80208,0.26097,0.07674,-0.23255,0.01331,0.03820,0.01299,-0.03781,0.03418,0.17500,0.51749,0.20093,-0.30000,-0.64499,-3.88531,771.81860,772.45947,0.58097,12.16985,0.64499,-0.52580,6.52222,8.84553,8.31972
53.92599,1.05790,0.21320,-0.80208,0.26097,0.07674,-0.23255,0.01331,0.03820,0.01299,-0.03781,0.03418,0.17500,0.51749,0.20093,-0.30000,-0.64499,-3.88531,771.81860,770.47027,0.58097,12.17107,0.64499,-0.52419,6.52222,8.84553,8.32133
53.92699,1.05790,0.21320,-0.80208,0.27736,0.07696,-0.26434,0.01331,0.03820,0.01299,-0.03781,0.03418,0.17500,0.51749,0.20093,-0.30000,-0.64499,-3.88681,771.96813,770.47027,0.58099,12.17228,0.64499,-0.52258,6.52222,8.84553,8.32295
53.92800,1.05790,0.21320,-0.80208,0.27736,0.07696,-0.26434,0.01331,0.03820,0.01299,-0.03781,0.03418,0.17500,0.51749,0.20093,-0.30000,-0.64499,-3.88681,771.96813,769.80950,0.58099,12.17350,0.64499,-0.52082,6.52222,8.84553,8.32470
53.92900,1.05790,0.21320,-0.80208,0.28656,0.08269,-0.29103,0.01331,0.03820,0.01299,-0.03781,0.03418,0.17500,0.51749,0.20093,-0.30000,-0.64499,-3.88845,772.13079,769.80950,0.58103,12.17471,0.64499,-0.51907,6.52222,8.84553,8.32645
53.93000,1.05790,0.21320,-0.80208,0.28656,0.08269,-0.29103,0.01331,0.03820,0.01299,-0.03781,0.03418,0.17500,0.51749,0.20093,-0.30000,-0.64499,-3.88845,772.13079,769.80950,0.58103,12.17591,0.64499,-0.51740,6.52222,8.84553,8.32812
53.93099,1.05790,0.21320,-0.80208,0.29056,0.08360,-0.31794,0.01331,0.03820,0.01299,-0.03781,0.03418,0.17500,0.51749,0.20093,-0.30000,-0.64499,-3.89001,772.28546,769.80950,0.58106,12.17711,0.64499,-0.51573,6.52222,8.84553,8.32979
53.93199,1.05790,0.21320,-0.80208,0.29056,0.08360,-0.31794,0.01331,0.03820,0.01299,-0.03781,0.03418,0.17500,0.51749,0.20093,-0.30000,-0.64499,-3.89001,772.28546,769.80950,0.58106,12.17831,0.64499,-0.51432,6.52222,8.84553,8.33120
53.93299,1.05790,0.21320,-0.80208,0.30243,0.08089,-0.35049,0.01331,0.03820,0.01299,-0.03781,0.03418,0.17500,0.51749,0.20093,-0.30000,-0.64499,-3.89133,772.41613,769.80950,0.58107,12.17950,0.64499,-0.51291,6.52222,8.84553,8.33261
53.93399,1.05790,0.21320,-0.80208,0.30243,0.08089,-0.35049,0.01331,0.03820,0.01299,-0.03781,0.03418,0.17500,0.51749,0.20093,-0.30000,-0.64499,-3.89133,772.41613,770.47027,0.58107,12.18069,0.64499,-0.51153,6.52222,8.84553,8.33399
53.93500,0.91196,0.22626,-0.78799,0.32092,0.08479,-0.38303,0.00831,0.03876,0.01299,-0.03496,0.03515,0.17217,0.51749,0.20093,-0.30000,-0.64499,-3.89248,772.53088,775.79766,0.58107,12.18187,0.64499,-0.51015,6.52222,8.84524,8.33508
53.93600,0.91196,0.22626,-0.78799,0.32092,0.08479,-0.38303,0.00831,0.03876,0.01299,-0.03496,0.03515,0.17217,0.51749,0.20093,-0.30000,-0.64499,-3.89248,772.53088,779.84179,0.58107,12.18305,0.64499,-0.50862,6.52222,8.84524,8.33661
53.93700,0.91196,0.22626,-0.78799,0.33191,0.09370,-0.40838,0.00831,0.03876,0.01299,-0.03496,0.03515,0.17217,0.51749,0.20093,-0.30000,-0.64499,-3.89391,772.67242,779.84179,0.58109,12.18422,0.64499,-0.50709,6.52222,8.84524,8.33814
53.93799,0.91196,0.22626,-0.78799,0.33191,0.09370,-0.40838,0.00831,0.03876,0.01299,-0.03496,0.03515,0.17217,0.51749,0.20093,-0.30000,-0.64499,-3.89391,772.67242,777.14105,0.58109,12.18540,0.64499,-0.50568,6.52222,8.84524,8.33956
53.93899,0.91196,0.22626,-0.78799,0.33422,0.09633,-0.43039,0.00831,0.03876,0.01299,-0.03496,0.03515,0.17217,0.51749,0.20093,-0.30000,-0.64499,-3.89523,772.80377,777.14105,0.58110,12.18656,0.64499,-0.50426,6.52222,8.84524,8.34097
53.93999,0.91196,0.22626,-0.78799,0.33422,0.09633,-0.43039,0.00831,0.03876,0.01299,-0.03496,0.03515,0.17217,0.51749,0.20093,-0.30000,-0.64499,-3.89523,772.80377,777.14105,0.58110,12.18772,0.64499,-0.50318,6.52222,8.84524,8.34206
53.94100,0.91196,0.22626,-0.78799,0.34062,0.09317,-0.45578,0.00831,0.03876,0.01299,-0.03496,0.03515,0.17217,0.51749,0.20093,-0.30000,-0.64499,-3.89624,772.90148,777.14105,0.58108,12.18887,0.64109,-0.50210,6.52226,8.84524,8.34314
53.94200,0.91196,0.22626,-0.78799,0.34062,0.09317,-0.45578,0.00831,0.03876,0.01299,-0.03496,0.03515,0.17217,0.51749,0.20093,-0.30000,-0.64499,-3.89624,772.90148,777.14105,0.58108,12.19002,0.64109,-0.50115,6.52226,8.84524,8.34409
53.94300,0.91196,0.22626,-0.78799,0.35288,0.09546,-0.48135,0.00831,0.03876,0.01299,-0.03496,0.03515,0.17217,0.51749,0.20093,-0.30000,-0.64499,-3.89713,772.98950,777.14105,0.58106,12.19117,0.64109,-0.50020,6.52226,8.84524,8.34504
53.94400,0.91196,0.22626,-0.78799,0.35288,0.09546,-0.48135,0.00831,0.03876,0.01299,-0.03496,0.03515,0.17217,0.51749,0.20093,-0.30000,-0.64499,-3.89713,772.98950,777.14105,0.58106,12.19231,0.64109,-0.49918,6.52226,8.84524,8.34606
53.94499,1.06694,0.14812,-0.77009,0.35974,0.10352,-0.50116,0.01584,0.03521,0.01299,-0.03161,0.03619,0.16797,0.51164,0.22533,-0.30000,-0.64109,-3.94042,777.27069,779.16485,0.58500,12.19344,0.64109,-0.49797,6.52226,8.93571,8.43773
53.94599,1.06694,0.14812,-0.77009,0.35974,0.10352,-0.50116,0.01584,0.03521,0.01299,-0.03161,0.03619,0.16797,0.51164,0.22533,-0.30000,-0.64109,-3.94042,777.27069,777.14105,0.58500,12.19457,0.64109,-0.49689,6.52226,8.93571,8.43881
53.94699,1.06694,0.14812,-0.77009,0.36034,0.10654,-0.51910,0.01584,0.03521,0.01299,-0.03161,0.03619,0.16797,0.51164,0.22533,-0.30000,-0.64109,-3.94142,777.36993,777.14105,0.58498,12.19569,0.64109,-0.49582,6.52226,8.93571,8.43988
53.94800,1.06694,0.14812,-0.77009,0.36034,0.10654,-0.51910,0.01584,0.03521,0.01299,-0.03161,0.03619,0.16797,0.51164,0.22533,-0.30000,-0.64109,-3.94142,777.36993,770.47027,0.58498,12.19681,0.64109,-0.49504,6.52226,8.93571,8.44066
53.94900,1.06694,0.14812,-0.77009,0.36643,0.10419,-0.54209,0.01584,0.03521,0.01299,-0.03161,0.03619,0.16797,0.51164,0.22533,-0.30000,-0.64109,-3.94215,777.44122,770.47027,0.58495,12.19792,0.64109,-0.49427,6.52226,8.93571,8.44143
53.95000,1.06694,0.14812,-0.77009,0.36643,0.10419,-0.54209,0.01584,0.03521,0.01299,-0.03161,0.03619,0.16797,0.51164,0.22533,-0.30000,-0.64109,-3.94215,777.44122,770.47027,0.58495,12.19902,0.64109,-0.49357,6.52226,8.93571,8.44213
53.95100,1.06694,0.14812,-0.77009,0.37869,0.10764,-0.56694,0.01584,0.03521,0.01299,-0.03161,0.03619,0.16797,0.51164,0.22533,-0.30000,-0.64109,-3.94280,777.50286,775.79766,0.58490,12.20011,0.63680,-0.49287,6.52230,8.93571,8.44283
53.95199,1.06694,0.14812,-0.77009,0.37869,0.10764,-0.56694,0.01584,0.03521,0.01299,-0.03161,0.03619,0.16797,0.51164,0.22533,-0.30000,-0.64109,-3.94280,777.50286,775.79766,0.58490,12.20120,0.63680,-0.49202,6.52230,8.93571,8.44368
53.95299,1.06694,0.14812,-0.77009,0.38438,0.11764,-0.58676,0.01584,0.03521,0.01299,-0.03161,0.03619,0.16797,0.51164,0.22533,-0.30000,-0.64109,-3.94359,777.58093,775.79766,0.58487,12.20228,0.63680,-0.49117,6.52230,8.93571,8.44453
53.95399,1.06694,0.14812,-0.77009,0.38438,0.11764,-0.58676,0.01584,0.03521,0.01299,-0.03161,0.03619,0.16797,0.51164,0.22533,-0.30000,-0.64109,-3.94359,777.58093,775.79766,0.58487,12.20336,0.63680,-0.49039,6.52230,8.93571,8.44532
53.95500,1.10005,0.14110,-0.74453,0.38188,0.12271,-0.60426,0.02150,0.03382,0.01299,-0.02794,0.03731,0.16273,0.50519,0.24791,-0.30000,-0.63680,-3.98535,781.68713,775.79766,0.58865,12.20443,0.63680,-0.48942,6.52230,9.02338,8.53395
53.95600,1.10005,0.14110,-0.74453,0.38188,0.12271,-0.60426,0.02150,0.03382,0.01299,-0.02794,0.03731,0.16273,0.50519,0.24791,-0.30000,-0.63680,-3.98535,781.68713,775.79766,0.58865,12.20550,0.63680,-0.48878,6.52230,9.02338,8.53459
53.95700,1.10005,0.14110,-0.74453,0.38431,0.12098,-0.62611,0.02150,0.03382,0.01299,-0.02794,0.03731,0.16273,0.50519,0.24791,-0.30000,-0.63680,-3.98595,781.74603,775.79766,0.58860,12.20656,0.63680,-0.48814,6.52230,9.02338,8.53524
53.95800,1.10005,0.14110,-0.74453,0.38431,0.12098,-0.62611,0.02150,0.03382,0.01299,-0.02794,0.03731,0.16273,0.50519,0.24791,-0.30000,-0.63680,-3.98595,781.74603,775.79766,0.58860,12.20762,0.63680,-0.48767,6.52230,9.02338,8.53570
53.95899,1.10005,0.14110,-0.74453,0.39426,0.12340,-0.64940,0.02150,0.03382,0.01299,-0.02794,0.03731,0.16273,0.50519,0.24791,-0.30000,-0.63680,-3.98639,781.78894,775.79766,0.58854,12.20866,0.63680,-0.48720,6.52230,9.02338,8.53617
53.95999,1.10005,0.14110,-0.74453,0.39426,0.12340,-0.64940,0.02150,0.03382,0.01299,-0.02794,0.03731,0.16273,0.50519,0.24791,-0.30000,-0.63680,-3.98639,781.78894,778.48907,0.58854,12.20971,0.63680,-0.48670,6.52230,9.02338,8.53667
53.96099,1.10005,0.14110,-0.74453,0.39835,0.13236,-0.66684,0.02150,0.03382,0.01299,-0.02794,0.03731,0.16273,0.50519,0.24791,-0.30000,-0.63680,-3.98686,781.83459,782.56134,0.58848,12.21074,0.63680,-0.48620,6.52230,9.02338,8.53717
53.96200,1.10005,0.14110,-0.74453,0.39835,0.13236,-0.66684,0.02150,0.03382,0.01299,-0.02794,0.03731,0.16273,0.50519,0.24791,-0.30000,-0.63680,-3.98686,781.83459,782.56134,0.58848,12.21177,0.63680,-0.48583,6.52230,9.02338,8.53754
53.96300,1.10005,0.14110,-0.74453,0.39260,0.13752,-0.68047,0.02150,0.03382,0.01299,-0.02794,0.03731,0.16273,0.50519,0.24791,-0.30000,-0.63680,-3.98721,781.86883,782.56134,0.58841,12.21279,0.63680,-0.48546,6.52230,9.02338,8.53792
53.96400,1.10005,0.14110,-0.74453,0.39260,0.13752,-0.68047,0.02150,0.03382,0.01299,-0.02794,0.03731,0.16273,0.50519,0.24791,-0.30000,-0.63680,-3.98721,781.86883,782.56134,0.58841,12.21381,0.63680,-0.48538,6.52230,9.02338,8.53800
53.96500,0.88498,0.18425,-0.71296,0.38997,0.13675,-0.69718,0.01491,0.03552,0.01299,-0.02410,0.03862,0.15654,0.50519,0.24791,-0.30000,-0.63680,-3.98702,781.85083,782.56134,0.58830,12.21482,0.63680,-0.48530,6.52230,9.02283,8.53752
53.96599,0.88498,0.18425,-0.71296,0.38997,0.13675,-0.69718,0.01491,0.03552,0.01299,-0.02410,0.03862,0.15654,0.50519,0.24791,-0.30000,-0.63680,-3.98702,781.85083,782.56134,0.58830,12.21582,0.63680,-0.48529,6.52230,9.02283,8.53753
53.96699,0.88498,0.18425,-0.71296,0.39590,0.14025,-0.71524,0.01491,0.03552,0.01299,-0.02410,0.03862,0.15654,0.50519,0.24791,-0.30000,-0.63680,-3.98703,781.85168,782.56134,0.58820,12.21681,0.63680,-0.48528,6.52230,9.02283,8.53754
53.96799,0.88498,0.18425,-0.71296,0.39590,0.14025,-0.71524,0.01491,0.03552,0.01299,-0.02410,0.03862,0.15654,0.50519,0.24791,-0.30000,-0.63680,-3.98703,781.85168,787.36657,0.58820,12.21780,0.63680,-0.48508,6.52230,9.02283,8.53774
53.96900,0.88498,0.18425,-0.71296,0.39928,0.14964,-0.72839,0.01491,0.03552,0.01299,-0.02410,0.03862,0.15654,0.50519,0.24791,-0.30000,-0.63680,-3.98721,781.86975,787.36657,0.58813,12.21878,0.63680,-0.48489,6.52230,9.02283,8.53794
53.97000,0.88498,0.18425,-0.71296,0.39928,0.14964,-0.72839,0.01491,0.03552,0.01299,-0.02410,0.03862,0.15654,0.50519,0.24791,-0.30000,-0.63680,-3.98721,781.86975,782.56134,0.58813,12.21975,0.63680,-0.48467,6.52230,9.02283,8.53815
53.97100,0.88498,0.18425,-0.71296,0.39497,0.15366,-0.73906,0.01491,0.03552,0.01299,-0.02410,0.03862,0.15654,0.50519,0.24791,-0.30000,-0.63680,-3.98741,781.88610,782.56134,0.58805,12.22071,0.63220,-0.48446,6.52236,9.02283,8.53837
53.97200,0.88498,0.18425,-0.71296,0.39497,0.15366,-0.73906,0.01491,0.03552,0.01299,-0.02410,0.03862,0.15654,0.50519,0.24791,-0.30000,-0.63680,-3.98741,781.88610,782.56134,0.58805,12.22167,0.63220,-0.48451,6.52236,9.02283,8.53832
53.97299,0.88498,0.18425,-0.71296,0.39305,0.14966,-0.75421,0.01491,0.03552,0.01299,-0.02410,0.03862,0.15654,0.50519,0.24791,-0.30000,-0.63680,-3.98737,781.88165,782.56134,0.58795,12.22261,0.63220,-0.48456,6.52236,9.02283,8.53827
53.97399,0.88498,0.18425,-0.71296,0.39305,0.14966,-0.75421,0.01491,0.03552,0.01299,-0.02410,0.03862,0.15654,0.50519,0.24791,-0.30000,-0.63680,-3.98737,781.88165,782.56134,0.58795,12.22355,0.63220,-0.48477,6.52236,9.02283,8.53805
53.97499,1.10612,0.10983,-0.68044,0.39752,0.14906,-0.77172,0.02595,0.03263,0.01299,-0.02024,0.04012,0.14961,0.49829,0.27164,-0.30000,-0.63220,-4.03075,786.12310,782.56134,0.59187,12.22448,0.63220,-0.48480,6.52236,9.11596,8.63115
53.97600,1.10612,0.10983,-0.68044,0.39752,0.14906,-0.77172,0.02595,0.03263,0.01299,-0.02024,0.04012,0.14961,0.49829,0.27164,-0.30000,-0.63220,-4.03075,786.12310,788.75036,0.59187,12.22541,0.63220,-0.48478,6.52236,9.11596,8.63117
53.97700,1.10612,0.10983,-0.68044,0.39803,0.15592,-0.78439,0.02595,0.03263,0.01299,-0.02024,0.04012,0.14961,0.49829,0.27164,-0.30000,-0.63220,-4.03076,786.12438,788.75036,0.59178,12.22632,0.63220,-0.48477,6.52236,9.11596,8.63118
53.97800,1.10612,0.10983,-0.68044,0.39803,0.15592,-0.78439,0.02595,0.03263,0.01299,-0.02024,0.04012,0.14961,0.49829,0.27164,-0.30000,-0.63220,-4.03076,786.12438,788.75036,0.59178,12.22723,0.63220,-0.48483,6.52236,9.11596,8.63112
53.97900,1.10612,0.10983,-0.68044,0.39112,0.16011,-0.79393,0.02595,0.03263,0.01299,-0.02024,0.04012,0.14961,0.49829,0.27164,-0.30000,-0.63220,-4.03071,786.11907,788.75036,0.59169,12.22813,0.63220,-0.48488,6.52236,9.11596,8.63107
53.97999,1.10612,0.10983,-0.68044,0.39112,0.16011,-0.79393,0.02595,0.03263,0.01299,-0.02024,0.04012,0.14961,0.49829,0.27164,-0.30000,-0.63220,-4.03071,786.11907,781.87969,0.59169,12.22902,0.63220,-0.48518,6.52236,9.11596,8.63077
53.98099,1.10612,0.10983,-0.68044,0.38838,0.15782,-0.80769,0.02595,0.03263,0.01299,-0.02024,0.04012,0.14961,0.49829,0.27164,-0.30000,-0.63220,-4.03043,786.09002,788.75036,0.59157,12.22990,0.62890,-0.48547,6.52240,9.11596,8.63048
53.98199,1.10612,0.10983,-0.68044,0.38838,0.15782,-0.80769,0.02595,0.03263,0.01299,-0.02024,0.04012,0.14961,0.49829,0.27164,-0.30000,-0.63220,-4.03043,786.09002,789.44403,0.59157,12.23078,0.62890,-0.48580,6.52240,9.11596,8.63015
53.98300,1.10612,0.10983,-0.68044,0.39443,0.15854,-0.82420,0.02595,0.03263,0.01299,-0.02024,0.04012,0.14961,0.49829,0.27164,-0.30000,-0.63220,-4.03012,786.05950,789.44403,0.59146,12.23165,0.62890,-0.48614,6.52240,9.11596,8.62981
53.98400,1.10612,0.10983,-0.68044,0.39443,0.15854,-0.82420,0.02595,0.03263,0.01299,-0.02024,0.04012,0.14961,0.49829,0.27164,-0.30000,-0.63220,-4.03012,786.05950,789.44403,0.59146,12.23251,0.62890,-0.48629,6.52240,9.11596,8.62966
53.98500,0.98921,0.05020,-0.64382,0.39765,0.16484,-0.83582,0.02534,0.02901,0.01299,-0.01645,0.04170,0.14201,0.49334,0.28920,-0.30000,-0.62890,-4.06106,789.07153,789.44403,0.59422,12.23336,0.62890,-0.48631,6.52240,9.18239,8.69607
53.98600,0.98921,0.05020,-0.64382,0.39765,0.16484,-0.83582,0.02534,0.02901,0.01299,-0.01645,0.04170,0.14201,0.49334,0.28920,-0.30000,-0.62890,-4.06106,789.07153,788.75036,0.59422,12.23420,0.62890,-0.48631,6.52240,9.18239,8.69607
53.98699,0.98921,0.05020,-0.64382,0.39197,0.16629,-0.84314,0.02534,0.02901,0.01299,-0.01645,0.04170,0.14201,0.49334,0.28920,-0.30000,-0.62890,-4.06106,789.07147,788.75036,0.59413,12.23503,0.62890,-0.48631,6.52240,9.18239,8.69607
53.98799,0.98921,0.05020,-0.64382,0.39197,0.16629,-0.84314,0.02534,0.02901,0.01299,-0.01645,0.04170,0.14201,0.49334,0.28920,-0.30000,-0.62890,-4.06106,789.07147,788.75036,0.59413,12.23585,0.62890,-0.48656,6.52240,9.18239,8.69582
53.98899,0.98921,0.05020,-0.64382,0.38738,0.16048,-0.85302,0.02534,0.02901,0.01299,-0.01645,0.04170,0.14201,0.49334,0.28920,-0.30000,-0.62890,-4.06083,789.04858,788.05786,0.59403,12.23667,0.62890,-0.48682,6.52240,9.18239,8.69557
53.99000,0.98921,0.05020,-0.64382,0.38738,0.16048,-0.85302,0.02534,0.02901,0.01299,-0.01645,0.04170,0.14201,0.49334,0.28920,-0.30000,-0.62890,-4.06083,789.04858,788.05786,0.59403,12.23747,0.62890,-0.48724,6.52240,9.18239,8.69514
53.99100,0.98921,0.05020,-0.64382,0.38947,0.15909,-0.86497,0.02534,0.02901,0.01299,-0.01645,0.04170,0.14201,0.49334,0.28920,-0.30000,-0.62890,-4.06043,789.01031,788.75036,0.59392,12.23826,0.62890,-0.48766,6.52240,9.18239,8.69472
53.99200,0.98921,0.05020,-0.64382,0.38947,0.15909,-0.86497,0.02534,0.02901,0.01299,-0.01645,0.04170,0.14201,0.49334,0.28920,-0.30000,-0.62890,-4.06043,789.01031,788.75036,0.59392,12.23904,0.62890,-0.48804,6.52240,9.18239,8.69434
53.99300,0.98921,0.05020,-0.64382,0.38882,0.16636,-0.87295,0.02534,0.02901,0.01299,-0.01645,0.04170,0.14201,0.49334,0.28920,-0.30000,-0.62890,-4.06008,788.97570,788.75036,0.59381,12.23982,0.62890,-0.48842,6.52240,9.18239,8.69396
53.99399,0.98921,0.05020,-0.64382,0.38882,0.16636,-0.87295,0.02534,0.02901,0.01299,-0.01645,0.04170,0.14201,0.49334,0.28920,-0.30000,-0.62890,-4.06008,788.97570,793.63208,0.59381,12.24059,0.62890,-0.48885,6.52240,9.18239,8.69353
53.99499,0.83229,0.12937,-0.60231,0.38092,0.17151,-0.87850,0.01954,0.03181,0.01299,-0.01265,0.04331,0.13388,0.49334,0.28920,-0.30000,-0.62890,-4.05948,788.91784,794.33441,0.59368,12.24134,0.62890,-0.48928,6.52240,9.18197,8.69269
53.99599,0.83229,0.12937,-0.60231,0.38092,0.17151,-0.87850,0.01954,0.03181,0.01299,-0.01265,0.04331,0.13388,0.49334,0.28920,-0.30000,-0.62890,-4.05948,788.91784,794.33441,0.59368,12.24209,0.62890,-0.48994,6.52240,9.18197,8.69203
53.99700,0.83229,0.12937,-0.60231,0.37584,0.16999,-0.88829,0.01954,0.03181,0.01299,-0.01265,0.04331,0.13388,0.49334,0.28920,-0.30000,-0.62890,-4.05887,788.85852,802.86035,0.59356,12.24283,0.62890,-0.49059,6.52240,9.18197,8.69138
53.99800,0.83229,0.12937,-0.60231,0.37584,0.16999,-0.88829,0.01954,0.03181,0.01299,-0.01265,0.04331,0.13388,0.49334,0.28920,-0.30000,-0.62890,-4.05887,788.85852,802.86035,0.59356,12.24356,0.62890,-0.49130,6.52240,9.18197,8.69067
53.99900,0.83229,0.12937,-0.60231,0.37787,0.17143,-0.90035,0.01954,0.03181,0.01299,-0.01265,0.04331,0.13388,0.49334,0.28920,-0.30000,-0.62890,-4.05821,788.79382,802.86035,0.59342,12.24428,0.62890,-0.49202,6.52240,9.18197,8.68995
54.00000,0.83229,0.12937,-0.60231,0.37787,0.17143,-0.90035,0.01954,0.03181,0.01299,-0.01265,0.04331,0.13388,0.49334,0.28920,-0.30000,-0.62890,-4.05821,788.79382,802.86035,0.59342,12.24499,0.62890,-0.49256,6.52240,9.18197,8.68941
54.00099,0.83229,0.12937,-0.60231,0.37604,0.17899,-0.90682,0.01954,0.03181,0.01299,-0.01265,0.04331,0.13388,0.49334,0.28920,-0.30000,-0.62890,-4.05770,788.74060,802.86035,0.59331,12.24569,0.62379,-0.49310,6.52246,9.18197,8.68887
54.00199,0.83229,0.12937,-0.60231,0.37604,0.17899,-0.90682,0.01954,0.03181,0.01299,-0.01265,0.04331,0.13388,0.49334,0.28920,-0.30000,-0.62890,-4.05770,788.74060,795.74279,0.59331,12.24638,0.62379,-0.49361,6.52246,9.18197,8.68836
54.00299,0.83229,0.12937,-0.60231,0.36539,0.18180,-0.90839,0.01954,0.03181,0.01299,-0.01265,0.04331,0.13388,0.49334,0.28920,-0.30000,-0.62890,-4.05722,788.69421,794.33441,0.59320,12.24707,0.62379,-0.49412,6.52246,9.18197,8.68784
54.00400,0.83229,0.12937,-0.60231,0.36539,0.18180,-0.90839,0.01954,0.03181,0.01299,-0.01265,0.04331,0.13388,0.49334,0.28920,-0.30000,-0.62890,-4.05722,788.69421,792.23114,0.59320,12.24775,0.62379,-0.49485,6.52246,9.18197,8.68712
54.00500,0.95407,0.07320,-0.56075,0.35724,0.17622,-0.91244,0.02491,0.03011,0.01299,-0.00903,0.04503,0.12538,0.48569,0.30482,-0.30000,-0.62379,-4.08952,791.82739,792.23114,0.59608,12.24841,0.62379,-0.49543,6.52246,9.25245,8.75701
54.00600,0.95407,0.07320,-0.56075,0.35724,0.17622,-0.91244,0.02491,0.03011,0.01299,-0.00903,0.04503,0.12538,0.48569,0.30482,-0.30000,-0.62379,-4.08952,791.82739,788.75036,0.59608,12.24907,0.62379,-0.49613,6.52246,9.25245,8.75631
54.00699,0.95407,0.07320,-0.56075,0.35806,0.17363,-0.91893,0.02491,0.03011,0.01299,-0.00903,0.04503,0.12538,0.48569,0.30482,-0.30000,-0.62379,-4.08887,791.76397,788.75036,0.59596,12.24973,0.62379,-0.49684,6.52246,9.25245,8.75561
54.00799,0.95407,0.07320,-0.56075,0.35806,0.17363,-0.91893,0.02491,0.03011,0.01299,-0.00903,0.04503,0.12538,0.48569,0.30482,-0.30000,-0.62379,-4.08887,791.76397,788.75036,0.59596,12.25038,0.62379,-0.49744,6.52246,9.25245,8.75500
54.00899,0.95407,0.07320,-0.56075,0.35839,0.17882,-0.92173,0.02491,0.03011,0.01299,-0.00903,0.04503,0.12538,0.48569,0.30482,-0.30000,-0.62379,-4.08830,791.70904,788.75036,0.59584,12.25102,0.62379,-0.49805,6.52246,9.25245,8.75439
54.00999,0.95407,0.07320,-0.56075,0.35839,0.17882,-0.92173,0.02491,0.03011,0.01299,-0.00903,0.04503,0.12538,0.48569,0.30482,-0.30000,-0.62379,-4.08830,791.70904,792.23114,0.59584,12.25166,0.62379,-0.49865,6.52246,9.25245,8.75379
54.01100,0.95407,0.07320,-0.56075,0.35253,0.18143,-0.92223,0.02491,0.03011,0.01299,-0.00903,0.04503,0.12538,0.48569,0.30482,-0.30000,-0.62379,-4.08774,791.65039,792.23114,0.59573,12.25229,0.61830,-0.49925,6.52254,9.25245,8.75320
54.01200,0.95407,0.07320,-0.56075,0.35253,0.18143,-0.92223,0.02491,0.03011,0.01299,-0.00903,0.04503,0.12538,0.48569,0.30482,-0.30000,-0.62379,-4.08774,791.65039,792.93103,0.59573,12.25291,0.61830,-0.50000,6.52254,9.25245,8.75245
54.01300,0.95407,0.07320,-0.56075,0.34906,0.17691,-0.92744,0.02491,0.03011,0.01299,-0.00903,0.04503,0.12538,0.48569,0.30482,-0.30000,-0.62379,-4.08704,791.58258,792.93103,0.59560,12.25353,0.61830,-0.50075,6.52254,9.25245,8.75170
54.01399,0.95407,0.07320,-0.56075,0.34906,0.17691,-0.92744,0.02491,0.03011,0.01299,-0.00903,0.04503,0.12538,0.48569,0.30482,-0.30000,-0.62379,-4.08704,791.58258,792.93103,0.59560,12.25415,0.61830,-0.50151,6.52254,9.25245,8.75093
54.01499,0.86809,0.03864,-0.51786,0.35179,0.17484,-0.93610,0.02316,0.02841,0.01299,-0.00558,0.04679,0.11672,0.47744,0.32217,-0.30000,-0.61830,-4.12189,794.95043,792.93103,0.59871,12.25475,0.61830,-0.50212,6.52254,9.32845,8.82632
54.01599,0.86809,0.03864,-0.51786,0.35179,0.17484,-0.93610,0.02316,0.02841,0.01299,-0.00558,0.04679,0.11672,0.47744,0.32217,-0.30000,-0.61830,-4.12189,794.95043,792.23114,0.59871,12.25535,0.61830,-0.50253,6.52254,9.32845,8.82591
54.01699,0.86809,0.03864,-0.51786,0.35070,0.17881,-0.94074,0.02316,0.02841,0.01299,-0.00558,0.04679,0.11672,0.47744,0.32217,-0.30000,-0.61830,-4.12151,794.91333,792.23114,0.59862,12.25595,0.61830,-0.50294,6.52254,9.32845,8.82550
54.01800,0.86809,0.03864,-0.51786,0.35070,0.17881,-0.94074,0.02316,0.02841,0.01299,-0.00558,0.04679,0.11672,0.47744,0.32217,-0.30000,-0.61830,-4.12151,794.91333,792.23114,0.59862,12.25654,0.61830,-0.50329,6.52254,9.32845,8.82515
54.01900,0.86809,0.03864,-0.51786,0.34201,0.17897,-0.94172,0.02316,0.02841,0.01299,-0.00558,0.04679,0.11672,0.47744,0.32217,-0.30000,-0.61830,-4.12118,794.88220,792.23114,0.59853,12.25712,0.61830,-0.50363,6.52254,9.32845,8.82481
54.02000,0.86809,0.03864,-0.51786,0.34201,0.17897,-0.94172,0.02316,0.02841,0.01299,-0.00558,0.04679,0.11672,0.47744,0.32217,-0.30000,-0.61830,-4.12118,794.88220,792.23114,0.59853,12.25770,0.61830,-0.50414,6.52254,9.32845,8.82430
54.02099,0.86809,0.03864,-0.51786,0.33705,0.17230,-0.94560,0.02316,0.02841,0.01299,-0.00558,0.04679,0.11672,0.47744,0.32217,-0.30000,-0.61830,-4.12071,794.83666,792.23114,0.59843,12.25827,0.61830,-0.50464,6.52254,9.32845,8.82380
54.02199,0.86809,0.03864,-0.51786,0.33705,0.17230,-0.94560,0.02316,0.02841,0.01299,-0.00558,0.04679,0.11672,0.47744,0.32217,-0.30000,-0.61830,-4.12071,794.83666,790.83514,0.59843,12.25883,0.61830,-0.50520,6.52254,9.32845,8.82324
54.02299,0.86809,0.03864,-0.51786,0.34112,0.16951,-0.95131,0.02316,0.02841,0.01299,-0.00558,0.04679,0.11672,0.47744,0.32217,-0.30000,-0.61830,-4.12019,794.78631,790.83514,0.59833,12.25939,0.61830,-0.50576,6.52254,9.32845,8.82268
54.02399,0.86809,0.03864,-0.51786,0.34112,0.16951,-0.95131,0.02316,0.02841,0.01299,-0.00558,0.04679,0.11672,0.47744,0.32217,-0.30000,-0.61830,-4.12019,794.78631,790.83514,0.59833,12.25994,0.61830,-0.50618,6.52254,9.32845,8.82226
54.02500,0.79195,0.08225,-0.47358,0.34395,0.17428,-0.95208,0.02004,0.03040,0.01299,-0.00227,0.04852,0.10786,0.47744,0.32217,-0.30000,-0.61830,-4.11976,794.74487,790.83514,0.59824,12.26048,0.61830,-0.50660,6.52254,9.32836,8.82176
54.02600,0.79195,0.08225,-0.47358,0.34395,0.17428,-0.95208,0.02004,0.03040,0.01299,-0.00227,0.04852,0.10786,0.47744,0.32217,-0.30000,-0.61830,-4.11976,794.74487,790.83514,0.59824,12.26102,0.61830,-0.50701,6.52254,9.32836,8.82135
54.02700,0.79195,0.08225,-0.47358,0.34017,0.17619,-0.94914,0.02004,0.03040,0.01299,-0.00227,0.04852,0.10786,0.47744,0.32217,-0.30000,-0.61830,-4.11938,794.70788,791.53253,0.59815,12.26156,0.61830,-0.50742,6.52254,9.32836,8.82094
54.02799,0.79195,0.08225,-0.47358,0.34017,0.17619,-0.94914,0.02004,0.03040,0.01299,-0.00227,0.04852,0.10786,0.47744,0.32217,-0.30000,-0.61830,-4.11938,794.70788,790.83514,0.59815,12.26209,0.61830,-0.50802,6.52254,9.32836,8.82034
54.02899,0.79195,0.08225,-0.47358,0.33854,0.17150,-0.94970,0.02004,0.03040,0.01299,-0.00227,0.04852,0.10786,0.47744,0.32217,-0.30000,-0.61830,-4.11882,794.65399,790.83514,0.59805,12.26261,0.61830,-0.50862,6.52254,9.32836,8.81974
54.02999,0.79195,0.08225,-0.47358,0.33854,0.17150,-0.94970,0.02004,0.03040,0.01299,-0.00227,0.04852,0.10786,0.47744,0.32217,-0.30000,-0.61830,-4.11882,794.65399,791.53253,0.59805,12.26313,0.61830,-0.50926,6.52254,9.32836,8.81910
54.03099,0.79195,0.08225,-0.47358,0.34239,0.17015,-0.95305,0.02004,0.03040,0.01299,-0.00227,0.04852,0.10786,0.47744,0.32217,-0.30000,-0.61830,-4.11822,794.59118,790.83514,0.59794,12.26365,0.61250,-0.50989,6.52262,9.32836,8.81847
54.03200,0.79195,0.08225,-0.47358,0.34239,0.17015,-0.95305,0.02004,0.03040,0.01299,-0.00227,0.04852,0.10786,0.47744,0.32217,-0.30000,-0.61830,-4.11822,794.59118,790.83514,0.59794,12.26416,0.61250,-0.51038,6.52262,9.32836,8.81798
54.03300,0.79195,0.08225,-0.47358,0.34220,0.17504,-0.95250,0.02004,0.03040,0.01299,-0.00227,0.04852,0.10786,0.47744,0.32217,-0.30000,-0.61830,-4.11777,794.54736,791.53253,0.59785,12.26466,0.61250,-0.51087,6.52262,9.32836,8.81749
54.03400,0.79195,0.08225,-0.47358,0.34220,0.17504,-0.95250,0.02004,0.03040,0.01299,-0.00227,0.04852,0.10786,0.47744,0.32217,-0.30000,-0.61830,-4.11777,794.54736,791.53253,0.59785,12.26516,0.61250,-0.51136,6.52262,9.32836,8.81700
54.03499,0.88421,-0.02129,-0.42918,0.33589,0.17582,-0.94905,0.02450,0.02616,0.01299,0.00103,0.05017,0.09894,0.46875,0.33986,-0.30000,-0.61250,-4.15428,798.06274,791.53253,0.60111,12.26566,0.61250,-0.51170,6.52262,9.40740,8.89569
54.03599,0.88421,-0.02129,-0.42918,0.33589,0.17582,-0.94905,0.02450,0.02616,0.01299,0.00103,0.05017,0.09894,0.46875,0.33986,-0.30000,-0.61250,-4.15428,798.06274,791.53253,0.60111,12.26614,0.61250,-0.51225,6.52262,9.40740,8.89514
54.03699,0.88421,-0.02129,-0.42918,0.33511,0.17010,-0.94914,0.02450,0.02616,0.01299,0.00103,0.05017,0.09894,0.46875,0.33986,-0.30000,-0.61250,-4.15377,798.01361,791.53253,0.60101,12.26662,0.61250,-0.51280,6.52262,9.40740,8.89459
54.03799,0.88421,-0.02129,-0.42918,0.33511,0.17010,-0.94914,0.02450,0.02616,0.01299,0.00103,0.05017,0.09894,0.46875,0.33986,-0.30000,-0.61250,-4.15377,798.01361,792.93103,0.60101,12.26710,0.61250,-0.51337,6.52262,9.40740,8.89402
54.03900,0.88421,-0.02129,-0.42918,0.34338,0.16896,-0.95108,0.02450,0.02616,0.01299,0.00103,0.05017,0.09894,0.46875,0.33986,-0.30000,-0.61250,-4.15324,797.96234,792.93103,0.60092,12.26757,0.61250,-0.51394,6.52262,9.40740,8.89345
54.04000,0.88421,-0.02129,-0.42918,0.34338,0.16896,-0.95108,0.02450,0.02616,0.01299,0.00103,0.05017,0.09894,0.46875,0.33986,-0.30000,-0.61250,-4.15324,797.96234,797.15625,0.60092,12.26803,0.61250,-0.51428,6.52262,9.40740,8.89311
54.04100,0.88421,-0.02129,-0.42918,0.34884,0.17504,-0.94779,0.02450,0.02616,0.01299,0.00103,0.05017,0.09894,0.46875,0.33986,-0.30000,-0.61250,-4.15292,797.92620,792.93103,0.60084,12.26849,0.60659,-0.51462,6.52272,9.40740,8.89277
54.04199,0.88421,-0.02129,-0.42918,0.34884,0.17504,-0.94779,0.02450,0.02616,0.01299,0.00103,0.05017,0.09894,0.46875,0.33986,-0.30000,-0.61250,-4.15292,797.92620,792.93103,0.60084,12.26894,0.60659,-0.51484,6.52272,9.40740,8.89255
54.04299,0.88421,-0.02129,-0.42918,0.34650,0.17709,-0.94063,0.02450,0.02616,0.01299,0.00103,0.05017,0.09894,0.46875,0.33986,-0.30000,-0.61250,-4.15272,797.90655,792.93103,0.60078,12.26939,0.60659,-0.51506,6.52272,9.40740,8.89233
54.04399,0.88421,-0.02129,-0.42918,0.34650,0.17709,-0.94063,0.02450,0.02616,0.01299,0.00103,0.05017,0.09894,0.46875,0.33986,-0.30000,-0.61250,-4.15272,797.90655,797.86480,0.60078,12.26983,0.60659,-0.51535,6.52272,9.40740,8.89204
54.04499,0.84039,-0.09916,-0.38466,0.34645,0.17182,-0.93673,0.02480,0.02099,0.01299,0.00434,0.05186,0.09011,0.45989,0.35354,-0.30000,-0.60659,-4.18358,800.86639,798.57464,0.60352,12.27026,0.60659,-0.51550,6.52272,9.47394,8.95843
54.04600,0.84039,-0.09916,-0.38466,0.34645,0.17182,-0.93673,0.02480,0.02099,0.01299,0.00434,0.05186,0.09011,0.45989,0.35354,-0.30000,-0.60659,-4.18358,800.86639,799.28570,0.60352,12.27069,0.60659,-0.51559,6.52272,9.47394,8.95834
54.04700,0.84039,-0.09916,-0.38466,0.35259,0.16954,-0.93507,0.02480,0.02099,0.01299,0.00434,0.05186,0.09011,0.45989,0.35354,-0.30000,-0.60659,-4.18350,800.85882,798.57464,0.60347,12.27112,0.60659,-0.51567,6.52272,9.47394,8.95826
54.04800,0.84039,-0.09916,-0.38466,0.35259,0.16954,-0.93507,0.02480,0.02099,0.01299,0.00434,0.05186,0.09011,0.45989,0.35354,-0.30000,-0.60659,-4.18350,800.85882,799.28570,0.60347,12.27154,0.60659,-0.51551,6.52272,9.47394,8.95842
54.04899,0.84039,-0.09916,-0.38466,0.35508,0.17306,-0.92938,0.02480,0.02099,0.01299,0.00434,0.05186,0.09011,0.45989,0.35354,-0.30000,-0.60659,-4.18365,800.87292,799.28570,0.60344,12.27195,0.60659,-0.51536,6.52272,9.47394,8.95857
54.04999,0.84039,-0.09916,-0.38466,0.35508,0.17306,-0.92938,0.02480,0.02099,0.01299,0.00434,0.05186,0.09011,0.45989,0.35354,-0.30000,-0.60659,-4.18365,800.87292,799.28570,0.60344,12.27236,0.60659,-0.51515,6.52272,9.47394,8.95878
54.05099,0.84039,-0.09916,-0.38466,0.35070,0.17278,-0.92170,0.02480,0.02099,0.01299,0.00434,0.05186,0.09011,0.45989,0.35354,-0.30000,-0.60659,-4.18384,800.89117,799.28570,0.60342,12.27276,0.60659,-0.51495,6.52272,9.47394,8.95898
54.05199,0.84039,-0.09916,-0.38466,0.35070,0.17278,-0.92170,0.02480,0.02099,0.01299,0.00434,0.05186,0.09011,0.45989,0.35354,-0.30000,-0.60659,-4.18384,800.89117,789.44403,0.60342,12.27316,0.60659,-0.51493,6.52272,9.47394,8.95900
54.05300,0.84039,-0.09916,-0.38466,0.34865,0.16717,-0.91883,0.02480,0.02099,0.01299,0.00434,0.05186,0.09011,0.45989,0.35354,-0.30000,-0.60659,-4.18386,800.89306,799.28570,0.60338,12.27354,0.60659,-0.51491,6.52272,9.47394,8.95903
54.05400,0.84039,-0.09916,-0.38466,0.34865,0.16717,-0.91883,0.02480,0.02099,0.01299,0.00434,0.05186,0.09011,0.45989,0.35354,-0.30000,-0.60659,-4.18386,800.89306,799.28570,0.60338,12.27392,0.60659,-0.51494,6.52272,9.47394,8.95899
54.05500,0.75262,0.02177,-0.34247,0.35068,0.16617,-0.91891,0.02201,0.02505,0.01299,0.00783,0.05356,0.08155,0.45989,0.35354,-0.30000,-0.60659,-4.18395,800.90197,800.71173,0.60335,12.27430,0.60659,-0.51497,6.52272,9.47420,8.95922
54.05599,0.75262,0.02177,-0.34247,0.35068,0.16617,-0.91891,0.02201,0.02505,0.01299,0.00783,0.05356,0.08155,0.45989,0.35354,-0.30000,-0.60659,-4.18395,800.90197,800.71173,0.60335,12.27466,0.60659,-0.51491,6.52272,9.47420,8.95929
54.05699,0.75262,0.02177,-0.34247,0.34704,0.17038,-0.91536,0.02201,0.02505,0.01299,0.00783,0.05356,0.08155,0.45989,0.35354,-0.30000,-0.60659,-4.18402,800.90789,801.42669,0.60332,12.27502,0.60659,-0.51484,6.52272,9.47420,8.95936
54.05799,0.75262,0.02177,-0.34247,0.34704,0.17038,-0.91536,0.02201,0.02505,0.01299,0.00783,0.05356,0.08155,0.45989,0.35354,-0.30000,-0.60659,-4.18402,800.90789,801.42669,0.60332,12.27537,0.60659,-0.51488,6.52272,9.47420,8.95932
54.05899,0.75262,0.02177,-0.34247,0.33674,0.16891,-0.91005,0.02201,0.02505,0.01299,0.00783,0.05356,0.08155,0.45989,0.35354,-0.30000,-0.60659,-4.18398,800.90466,812.30578,0.60328,12.27571,0.60659,-0.51491,6.52272,9.47420,8.95928
54.06000,0.75262,0.02177,-0.34247,0.33674,0.16891,-0.91005,0.02201,0.02505,0.01299,0.00783,0.05356,0.08155,0.45989,0.35354,-0.30000,-0.60659,-4.18398,800.90466,812.30578,0.60328,12.27605,0.60659,-0.51525,6.52272,9.47420,8.95894
54.06100,0.75262,0.02177,-0.34247,0.33047,0.16106,-0.90885,0.02201,0.02505,0.01299,0.00783,0.05356,0.08155,0.45989,0.35354,-0.30000,-0.60659,-4.18366,800.86987,812.30578,0.60322,12.27638,0.60250,-0.51560,6.52278,9.47420,8.95860
54.06200,0.75262,0.02177,-0.34247,0.33047,0.16106,-0.90885,0.02201,0.02505,0.01299,0.00783,0.05356,0.08155,0.45989,0.35354,-0.30000,-0.60659,-4.18366,800.86987,813.04156,0.60322,12.27670,0.60250,-0.51605,6.52278,9.47420,8.95815
54.06299,0.75262,0.02177,-0.34247,0.32952,0.15796,-0.90910,0.02201,0.02505,0.01299,0.00783,0.05356,0.08155,0.45989,0.35354,-0.30000,-0.60659,-4.18324,800.82952,813.04156,0.60315,12.27702,0.60250,-0.51650,6.52278,9.47420,8.95770
54.06399,0.75262,0.02177,-0.34247,0.32952,0.15796,-0.90910,0.02201,0.02505,0.01299,0.00783,0.05356,0.08155,0.45989,0.35354,-0.30000,-0.60659,-4.18324,800.82952,812.30578,0.60315,12.27733,0.60250,-0.51685,6.52278,9.47420,8.95735
54.06499,0.77089,-0.12872,-0.29922,0.32351,0.16041,-0.90486,0.02308,0.01856,0.01299,0.01118,0.05521,0.07321,0.45375,0.36610,-0.30000,-0.60250,-4.20867,803.25939,812.30578,0.60540,12.27763,0.60250,-0.51709,6.52278,9.52923,9.01214
54.06600,0.77089,-0.12872,-0.29922,0.32351,0.16041,-0.90486,0.02308,0.01856,0.01299,0.01118,0.05521,0.07321,0.45375,0.36610,-0.30000,-0.60250,-4.20867,803.25939,805.02056,0.60540,12.27792,0.60250,-0.51741,6.52278,9.52923,9.01182
54.06700,0.77089,-0.12872,-0.29922,0.31186,0.15779,-0.89931,0.02308,0.01856,0.01299,0.01118,0.05521,0.07321,0.45375,0.36610,-0.30000,-0.60250,-4.20837,803.23114,803.57916,0.60535,12.27820,0.60250,-0.51772,6.52278,9.52923,9.01151
54.06800,0.77089,-0.12872,-0.29922,0.31186,0.15779,-0.89931,0.02308,0.01856,0.01299,0.01118,0.05521,0.07321,0.45375,0.36610,-0.30000,-0.60250,-4.20837,803.23114,799.99810,0.60535,12.27848,0.60250,-0.51828,6.52278,9.52923,9.01095
54.06900,0.77089,-0.12872,-0.29922,0.30544,0.14977,-0.89893,0.02308,0.01856,0.01299,0.01118,0.05521,0.07321,0.45375,0.36610,-0.30000,-0.60250,-4.20785,803.18151,799.99810,0.60527,12.27875,0.60250,-0.51884,6.52278,9.52923,9.01039
54.06999,0.77089,-0.12872,-0.29922,0.30544,0.14977,-0.89893,0.02308,0.01856,0.01299,0.01118,0.05521,0.07321,0.45375,0.36610,-0.30000,-0.60250,-4.20785,803.18151,799.99810,0.60527,12.27900,0.60250,-0.51941,6.52278,9.52923,9.00982
54.07099,0.77089,-0.12872,-0.29922,0.30459,0.14684,-0.90080,0.02308,0.01856,0.01299,0.01118,0.05521,0.07321,0.45375,0.36610,-0.30000,-0.60250,-4.20731,803.13037,795.74279,0.60520,12.27926,0.60250,-0.51998,6.52278,9.52923,9.00924
54.07199,0.77089,-0.12872,-0.29922,0.30459,0.14684,-0.90080,0.02308,0.01856,0.01299,0.01118,0.05521,0.07321,0.45375,0.36610,-0.30000,-0.60250,-4.20731,803.13037,799.99810,0.60520,12.27950,0.60250,-0.52039,6.52278,9.52923,9.00884
54.07300,0.77089,-0.12872,-0.29922,0.29797,0.14849,-0.89852,0.02308,0.01856,0.01299,0.01118,0.05521,0.07321,0.45375,0.36610,-0.30000,-0.60250,-4.20693,803.09399,795.74279,0.60514,12.27973,0.60250,-0.52080,6.52278,9.52923,9.00843
54.07400,0.77089,-0.12872,-0.29922,0.29797,0.14849,-0.89852,0.02308,0.01856,0.01299,0.01118,0.05521,0.07321,0.45375,0.36610,-0.30000,-0.60250,-4.20693,803.09399,799.99810,0.60514,12.27996,0.60250,-0.52125,6.52278,9.52923,9.00798
54.07500,0.71888,-0.01031,-0.25951,0.28511,0.14398,-0.89445,0.02154,0.02268,0.01299,0.01429,0.05675,0.06500,0.45375,0.36610,-0.30000,-0.60250,-4.20674,803.07519,795.03796,0.60510,12.28018,0.60250,-0.52171,6.52278,9.52972,9.00801
54.07600,0.71888,-0.01031,-0.25951,0.28511,0.14398,-0.89445,0.02154,0.02268,0.01299,0.01429,0.05675,0.06500,0.45375,0.36610,-0.30000,-0.60250,-4.20674,803.07519,799.99810,0.60510,12.28040,0.60250,-0.52237,6.52278,9.52972,9.00734
54.07699,0.71888,-0.01031,-0.25951,0.27725,0.13435,-0.89373,0.02154,0.02268,0.01299,0.01429,0.05675,0.06500,0.45375,0.36610,-0.30000,-0.60250,-4.20611,803.01556,795.03796,0.60503,12.28060,0.60250,-0.52304,6.52278,9.52972,9.00667
54.07799,0.71888,-0.01031,-0.25951,0.27725,0.13435,-0.89373,0.02154,0.02268,0.01299,0.01429,0.05675,0.06500,0.45375,0.36610,-0.30000,-0.60250,-4.20611,803.01556,795.03796,0.60503,12.28080,0.60250,-0.52370,6.52278,9.52972,9.00602
54.07899,0.71888,-0.01031,-0.25951,0.27534,0.13078,-0.89293,0.02154,0.02268,0.01299,0.01429,0.05675,0.06500,0.45375,0.36610,-0.30000,-0.60250,-4.20550,802.95733,799.99810,0.60495,12.28100,0.60250,-0.52435,6.52278,9.52972,9.00536
54.08000,0.71888,-0.01031,-0.25951,0.27534,0.13078,-0.89293,0.02154,0.02268,0.01299,0.01429,0.05675,0.06500,0.45375,0.36610,-0.30000,-0.60250,-4.20550,802.95733,797.15625,0.60495,12.28118,0.60250,-0.52479,6.52278,9.52972,9.00493
54.08100,0.71888,-0.01031,-0.25951,0.26937,0.13221,-0.88709,0.02154,0.02268,0.01299,0.01429,0.05675,0.06500,0.45375,0.36610,-0.30000,-0.60250,-4.20509,802.91113,800.71173,0.60489,12.28136,0.59600,-0.52522,6.52290,9.52972,9.00449
54.08200,0.71888,-0.01031,-0.25951,0.26937,0.13221,-0.88709,0.02154,0.02268,0.01299,0.01429,0.05675,0.06500,0.45375,0.36610,-0.30000,-0.60250,-4.20509,802.91113,801.42669,0.60489,12.28153,0.59600,-0.52564,6.52290,9.52972,9.00407
54.08300,0.71888,-0.01031,-0.25951,0.25921,0.12764,-0.88044,0.02154,0.02268,0.01299,0.01429,0.05675,0.06500,0.45375,0.36610,-0.30000,-0.60250,-4.20470,802.87365,802.14288,0.60484,12.28169,0.59600,-0.52606,6.52290,9.52972,9.00365
54.08399,0.71888,-0.01031,-0.25951,0.25921,0.12764,-0.88044,0.02154,0.02268,0.01299,0.01429,0.05675,0.06500,0.45375,0.36610,-0.30000,-0.60250,-4.20470,802.87365,803.57916,0.60484,12.28184,0.59600,-0.52663,6.52290,9.52972,9.00308
54.08499,0.70722,-0.09508,-0.21735,0.25424,0.11817,-0.87833,0.02124,0.01964,0.01299,0.01700,0.05813,0.05685,0.44400,0.38119,-0.30000,-0.59600,-4.23875,806.11749,802.14288,0.60787,12.28199,0.59600,-0.52705,6.52290,9.60360,9.07655
54.08599,0.70722,-0.09508,-0.21735,0.25424,0.11817,-0.87833,0.02124,0.01964,0.01299,0.01700,0.05813,0.05685,0.44400,0.38119,-0.30000,-0.59600,-4.23875,806.11749,803.57916,0.60787,12.28213,0.59600,-0.52740,6.52290,9.60360,9.07620
54.08700,0.70722,-0.09508,-0.21735,0.25352,0.11403,-0.87627,0.02124,0.01964,0.01299,0.01700,0.05813,0.05685,0.44400,0.38119,-0.30000,-0.59600,-4.23842,806.08636,803.57916,0.60783,12.28227,0.59600,-0.52775,6.52290,9.60360,9.07585
54.08800,0.70722,-0.09508,-0.21735,0.25352,0.11403,-0.87627,0.02124,0.01964,0.01299,0.01700,0.05813,0.05685,0.44400,0.38119,-0.30000,-0.59600,-4.23842,806.08636,803.57916,0.60783,12.28239,0.59600,-0.52787,6.52290,9.60360,9.07572
54.08900,0.70722,-0.09508,-0.21735,0.24786,0.11336,-0.86856,0.02124,0.01964,0.01299,0.01700,0.05813,0.05685,0.44400,0.38119,-0.30000,-0.59600,-4.23830,806.07531,803.57916,0.60780,12.28251,0.59600,-0.52800,6.52290,9.60360,9.07560
54.09000,0.70722,-0.09508,-0.21735,0.24786,0.11336,-0.86856,0.02124,0.01964,0.01299,0.01700,0.05813,0.05685,0.44400,0.38119,-0.30000,-0.59600,-4.23830,806.07531,802.14288,0.60780,12.28262,0.59600,-0.52809,6.52290,9.60360,9.07550
54.09099,0.70722,-0.09508,-0.21735,0.23921,0.10644,-0.85906,0.02124,0.01964,0.01299,0.01700,0.05813,0.05685,0.44400,0.38119,-0.30000,-0.59600,-4.23821,806.05895,802.14288,0.60778,12.28273,0.58940,-0.52819,6.52303,9.60360,9.07541
54.09199,0.70722,-0.09508,-0.21735,0.23921,0.10644,-0.85906,0.02124,0.01964,0.01299,0.01700,0.05813,0.05685,0.44400,0.38119,-0.30000,-0.59600,-4.23821,806.05895,802.14288,0.60778,12.28283,0.58940,-0.52837,6.52303,9.60360,9.07523
54.09299,0.70722,-0.09508,-0.21735,0.23694,0.09638,-0.85290,0.02124,0.01964,0.01299,0.01700,0.05813,0.05685,0.44400,0.38119,-0.30000,-0.59600,-4.23805,806.04296,802.14288,0.60775,12.28292,0.58940,-0.52855,6.52303,9.60360,9.07505
54.09400,0.70722,-0.09508,-0.21735,0.23694,0.09638,-0.85290,0.02124,0.01964,0.01299,0.01700,0.05813,0.05685,0.44400,0.38119,-0.30000,-0.59600,-4.23805,806.04296,802.14288,0.60775,12.28300,0.58940,-0.52857,6.52303,9.60360,9.07503
54.09500,0.67212,-0.22499,-0.17519,0.23832,0.09313,-0.84623,0.01992,0.01220,0.01299,0.01945,0.05930,0.04896,0.43409,0.39227,-0.30000,-0.58940,-4.26683,808.77532,799.99810,0.61031,12.28308,0.58940,-0.52847,6.52303,9.66515,9.13668
54.09600,0.67212,-0.22499,-0.17519,0.23832,0.09313,-0.84623,0.01992,0.01220,0.01299,0.01945,0.05930,0.04896,0.43409,0.39227,-0.30000,-0.58940,-4.26683,808.77532,802.14288,0.61031,12.28315,0.58940,-0.52808,6.52303,9.66515,9.13707
54.09700,0.67212,-0.22499,-0.17519,0.23341,0.09303,-0.83525,0.01992,0.01220,0.01299,0.01945,0.05930,0.04896,0.43409,0.39227,-0.30000,-0.58940,-4.26719,808.81005,802.14288,0.61034,12.28322,0.58940,-0.52768,6.52303,9.66515,9.13746
54.09799,0.67212,-0.22499,-0.17519,0.23341,0.09303,-0.83525,0.01992,0.01220,0.01299,0.01945,0.05930,0.04896,0.43409,0.39227,-0.30000,-0.58940,-4.26719,808.81005,805.74316,0.61034,12.28328,0.58940,-0.52723,6.52303,9.66515,9.13792
54.09899,0.67212,-0.22499,-0.17519,0.22495,0.08604,-0.82539,0.01992,0.01220,0.01299,0.01945,0.05930,0.04896,0.43409,0.39227,-0.30000,-0.58940,-4.26762,808.85015,815.25689,0.61037,12.28333,0.58940,-0.52678,6.52303,9.66515,9.13837
54.09999,0.67212,-0.22499,-0.17519,0.22495,0.08604,-0.82539,0.01992,0.01220,0.01299,0.01945,0.05930,0.04896,0.43409,0.39227,-0.30000,-0.58940,-4.26762,808.85015,815.25689,0.61037,12.28337,0.58940,-0.52638,6.52303,9.66515,9.13877
54.10100,0.67212,-0.22499,-0.17519,0.22271,0.07605,-0.82105,0.01992,0.01220,0.01299,0.01945,0.05930,0.04896,0.43409,0.39227,-0.30000,-0.58940,-4.26799,808.88549,815.25689,0.61040,12.28341,0.58940,-0.52598,6.52303,9.66515,9.13917
54.10200,0.67212,-0.22499,-0.17519,0.22271,0.07605,-0.82105,0.01992,0.01220,0.01299,0.01945,0.05930,0.04896,0.43409,0.39227,-0.30000,-0.58940,-4.26799,808.88549,805.74316,0.61040,12.28345,0.58940,-0.52539,6.52303,9.66515,9.13976
54.10300,0.67212,-0.22499,-0.17519,0.22353,0.07273,-0.81658,0.01992,0.01220,0.01299,0.01945,0.05930,0.04896,0.43409,0.39227,-0.30000,-0.58940,-4.26854,808.93743,825.75701,0.61044,12.28348,0.58940,-0.52481,6.52303,9.66515,9.14034
54.10400,0.67212,-0.22499,-0.17519,0.22353,0.07273,-0.81658,0.01992,0.01220,0.01299,0.01945,0.05930,0.04896,0.43409,0.39227,-0.30000,-0.58940,-4.26854,808.93743,825.75701,0.61044,12.28350,0.58940,-0.52390,6.52303,9.66515,9.14125
54.10499,0.67069,-0.05935,-0.14104,0.21795,0.07164,-0.80689,0.01996,0.01750,0.01299,0.02175,0.06019,0.04150,0.43409,0.39227,-0.30000,-0.58940,-4.26975,809.05187,825.75701,0.61055,12.28351,0.58940,-0.52299,6.52303,9.66592,9.14293
54.10599,0.67069,-0.05935,-0.14104,0.21795,0.07164,-0.80689,0.01996,0.01750,0.01299,0.02175,0.06019,0.04150,0.43409,0.39227,-0.30000,-0.58940,-4.26975,809.05187,845.99230,0.61055,12.28352,0.58940,-0.52195,6.52303,9.66592,9.14396
54.10699,0.67069,-0.05935,-0.14104,0.21024,0.06299,-0.79656,0.01996,0.01750,0.01299,0.02175,0.06019,0.04150,0.43409,0.39227,-0.30000,-0.58940,-4.27071,809.14349,825.75701,0.61064,12.28352,0.58940,-0.52092,6.52303,9.66592,9.14500
54.10800,0.67069,-0.05935,-0.14104,0.21024,0.06299,-0.79656,0.01996,0.01750,0.01299,0.02175,0.06019,0.04150,0.43409,0.39227,-0.30000,-0.58940,-4.27071,809.14349,801.42669,0.61064,12.28351,0.58940,-0.51983,6.52303,9.66592,9.14609
54.10900,0.67069,-0.05935,-0.14104,0.21038,0.05103,-0.78940,0.01996,0.01750,0.01299,0.02175,0.06019,0.04150,0.43409,0.39227,-0.30000,-0.58940,-4.27173,809.23968,800.71173,0.61073,12.28350,0.58940,-0.51874,6.52303,9.66592,9.14717
54.11000,0.67069,-0.05935,-0.14104,0.21038,0.05103,-0.78940,0.01996,0.01750,0.01299,0.02175,0.06019,0.04150,0.43409,0.39227,-0.30000,-0.58940,-4.27173,809.23968,800.71173,0.61073,12.28348,0.58940,-0.51739,6.52303,9.66592,9.14853
54.11100,0.67069,-0.05935,-0.14104,0.21387,0.04472,-0.78045,0.01996,0.01750,0.01299,0.02175,0.06019,0.04150,0.43409,0.39227,-0.30000,-0.58940,-4.27300,809.35095,801.42669,0.61083,12.28346,0.58260,-0.51603,6.52318,9.66592,9.14989
54.11199,0.67069,-0.05935,-0.14104,0.21387,0.04472,-0.78045,0.01996,0.01750,0.01299,0.02175,0.06019,0.04150,0.43409,0.39227,-0.30000,-0.58940,-4.27300,809.35095,801.42669,0.61083,12.28343,0.58260,-0.51436,6.52318,9.66592,9.15156
54.11299,0.67069,-0.05935,-0.14104,0.21030,0.03958,-0.76696,0.01996,0.01750,0.01299,0.02175,0.06019,0.04150,0.43409,0.39227,-0.30000,-0.58940,-4.27455,809.49816,803.57916,0.61098,12.28339,0.58260,-0.51270,6.52318,9.66592,9.15322
54.11399,0.67069,-0.05935,-0.14104,0.21030,0.03958,-0.76696,0.01996,0.01750,0.01299,0.02175,0.06019,0.04150,0.43409,0.39227,-0.30000,-0.58940,-4.27455,809.49816,803.57916,0.61098,12.28335,0.58260,-0.51099,6.52318,9.66592,9.15492
54.11500,0.63014,-0.13411,-0.10379,0.20329,0.02796,-0.75527,0.01841,0.01488,0.01299,0.02395,0.06078,0.03442,0.42389,0.40473,-0.30000,-0.58260,-4.30763,812.62463,803.57916,0.61392,12.28330,0.58260,-0.50916,6.52318,9.73323,9.22406
54.11600,0.63014,-0.13411,-0.10379,0.20329,0.02796,-0.75527,0.01841,0.01488,0.01299,0.02395,0.06078,0.03442,0.42389,0.40473,-0.30000,-0.58260,-4.30763,812.62463,807.91894,0.61392,12.28325,0.58260,-0.50732,6.52318,9.73323,9.22590
54.11700,0.63014,-0.13411,-0.10379,0.20163,0.01570,-0.74857,0.01841,0.01488,0.01299,0.02395,0.06078,0.03442,0.42389,0.40473,-0.30000,-0.58260,-4.30935,812.78613,807.91894,0.61407,12.28319,0.58260,-0.50549,6.52318,9.73323,9.22773
54.11800,0.63014,-0.13411,-0.10379,0.20163,0.01570,-0.74857,0.01841,0.01488,0.01299,0.02395,0.06078,0.03442,0.42389,0.40473,-0.30000,-0.58260,-4.30935,812.78613,807.91894,0.61407,12.28313,0.58260,-0.50339,6.52318,9.73323,9.22983
54.11899,0.63014,-0.13411,-0.10379,0.20116,0.01013,-0.74043,0.01841,0.01488,0.01299,0.02395,0.06078,0.03442,0.42389,0.40473,-0.30000,-0.58260,-4.31131,812.97137,807.91894,0.61425,12.28306,0.58260,-0.50128,6.52318,9.73323,9.23194
54.11999,0.63014,-0.13411,-0.10379,0.20116,0.01013,-0.74043,0.01841,0.01488,0.01299,0.02395,0.06078,0.03442,0.42389,0.40473,-0.30000,-0.58260,-4.31131,812.97137,807.91894,0.61425,12.28299,0.58260,-0.49886,6.52318,9.73323,9.23436
54.12099,0.63014,-0.13411,-0.10379,0.19472,0.00424,-0.72747,0.01841,0.01488,0.01299,0.02395,0.06078,0.03442,0.42389,0.40473,-0.30000,-0.58260,-4.31357,813.17803,807.91894,0.61445,12.28291,0.57789,-0.49644,6.52328,9.73323,9.23678
54.12200,0.63014,-0.13411,-0.10379,0.19472,0.00424,-0.72747,0.01841,0.01488,0.01299,0.02395,0.06078,0.03442,0.42389,0.40473,-0.30000,-0.58260,-4.31357,813.17803,803.57916,0.61445,12.28282,0.57789,-0.49394,6.52328,9.73323,9.23928
54.12300,0.63014,-0.13411,-0.10379,0.18856,-0.00950,-0.71536,0.01841,0.01488,0.01299,0.02395,0.06078,0.03442,0.42389,0.40473,-0.30000,-0.58260,-4.31591,813.39794,803.57916,0.61467,12.28273,0.57789,-0.49144,6.52328,9.73323,9.24178
54.12400,0.63014,-0.13411,-0.10379,0.18856,-0.00950,-0.71536,0.01841,0.01488,0.01299,0.02395,0.06078,0.03442,0.42389,0.40473,-0.30000,-0.58260,-4.31591,813.39794,803.57916,0.61467,12.28264,0.57789,-0.48891,6.52328,9.73323,9.24431
54.12500,0.68321,-0.20661,-0.06895,0.19033,-0.02341,-0.70639,0.02119,0.01035,0.01299,0.02605,0.06093,0.02788,0.41684,0.41828,-0.30000,-0.57789,-4.34720,816.34100,803.57916,0.61744,12.28254,0.57789,-0.48625,6.52328,9.79503,9.30877
54.12599,0.68321,-0.20661,-0.06895,0.19033,-0.02341,-0.70639,0.02119,0.01035,0.01299,0.02605,0.06093,0.02788,0.41684,0.41828,-0.30000,-0.57789,-4.34720,816.34100,802.86035,0.61744,12.28244,0.57789,-0.48335,6.52328,9.79503,9.31167
54.12699,0.68321,-0.20661,-0.06895,0.19312,-0.02987,-0.69498,0.02119,0.01035,0.01299,0.02605,0.06093,0.02788,0.41684,0.41828,-0.30000,-0.57789,-4.34990,816.59478,801.42669,0.61769,12.28232,0.57789,-0.48046,6.52328,9.79503,9.31456
54.12799,0.68321,-0.20661,-0.06895,0.19312,-0.02987,-0.69498,0.02119,0.01035,0.01299,0.02605,0.06093,0.02788,0.41684,0.41828,-0.30000,-0.57789,-4.34990,816.59478,801.42669,0.61769,12.28221,0.57789,-0.47739,6.52328,9.79503,9.31764
54.12900,0.68321,-0.20661,-0.06895,0.18900,-0.03659,-0.68038,0.02119,0.01035,0.01299,0.02605,0.06093,0.02788,0.41684,0.41828,-0.30000,-0.57789,-4.35277,816.86425,802.86035,0.61796,12.28209,0.57789,-0.47431,6.52328,9.79503,9.32071
54.13000,0.68321,-0.20661,-0.06895,0.18900,-0.03659,-0.68038,0.02119,0.01035,0.01299,0.02605,0.06093,0.02788,0.41684,0.41828,-0.30000,-0.57789,-4.35277,816.86425,800.71173,0.61796,12.28196,0.57789,-0.47135,6.52328,9.79503,9.32367
54.13100,0.68321,-0.20661,-0.06895,0.18451,-0.05030,-0.66991,0.02119,0.01035,0.01299,0.02605,0.06093,0.02788,0.41684,0.41828,-0.30000,-0.57789,-4.35553,817.12353,802.86035,0.61821,12.28183,0.57789,-0.46839,6.52328,9.79503,9.32663
54.13199,0.68321,-0.20661,-0.06895,0.18451,-0.05030,-0.66991,0.02119,0.01035,0.01299,0.02605,0.06093,0.02788,0.41684,0.41828,-0.30000,-0.57789,-4.35553,817.12353,804.29919,0.61821,12.28169,0.57789,-0.46557,6.52328,9.79503,9.32946
54.13299,0.68321,-0.20661,-0.06895,0.18644,-0.06258,-0.66494,0.02119,0.01035,0.01299,0.02605,0.06093,0.02788,0.41684,0.41828,-0.30000,-0.57789,-4.35818,817.37127,809.37591,0.61846,12.28155,0.57789,-0.46274,6.52328,9.79503,9.33229
54.13399,0.68321,-0.20661,-0.06895,0.18644,-0.06258,-0.66494,0.02119,0.01035,0.01299,0.02605,0.06093,0.02788,0.41684,0.41828,-0.30000,-0.57789,-4.35818,817.37127,809.37591,0.61846,12.28141,0.57789,-0.45982,6.52328,9.79503,9.33520
54.13499,0.63739,-0.07745,-0.04228,0.18763,-0.06724,-0.65779,0.02051,0.01472,0.01299,0.02808,0.06058,0.02190,0.41684,0.41828,-0.30000,-0.57789,-4.36108,817.64373,809.37591,0.61873,12.28126,0.57789,-0.45691,6.52328,9.79543,9.33851
54.13600,0.63739,-0.07745,-0.04228,0.18763,-0.06724,-0.65779,0.02051,0.01472,0.01299,0.02808,0.06058,0.02190,0.41684,0.41828,-0.30000,-0.57789,-4.36108,817.64373,804.29919,0.61873,12.28111,0.57789,-0.45398,6.52328,9.79543,9.34144
54.13700,0.63739,-0.07745,-0.04228,0.18258,-0.07314,-0.64601,0.02051,0.01472,0.01299,0.02808,0.06058,0.02190,0.41684,0.41828,-0.30000,-0.57789,-4.36382,817.90002,809.37591,0.61899,12.28095,0.57789,-0.45106,6.52328,9.79543,9.34436
54.13800,0.63739,-0.07745,-0.04228,0.18258,-0.07314,-0.64601,0.02051,0.01472,0.01299,0.02808,0.06058,0.02190,0.41684,0.41828,-0.30000,-0.57789,-4.36382,817.90002,809.37591,0.61899,12.28078,0.57789,-0.44836,6.52328,9.79543,9.34706
54.13899,0.63739,-0.07745,-0.04228,0.18003,-0.08585,-0.63537,0.02051,0.01472,0.01299,0.02808,0.06058,0.02190,0.41684,0.41828,-0.30000,-0.57789,-4.36633,818.13592,809.37591,0.61923,12.28062,0.57789,-0.44567,6.52328,9.79543,9.34976
54.13999,0.63739,-0.07745,-0.04228,0.18003,-0.08585,-0.63537,0.02051,0.01472,0.01299,0.02808,0.06058,0.02190,0.41684,0.41828,-0.30000,-0.57789,-4.36633,818.13592,805.02056,0.61923,12.28045,0.57789,-0.44316,6.52328,9.79543,9.35226
54.14099,0.63739,-0.07745,-0.04228,0.18559,-0.09611,-0.62663,0.02051,0.01472,0.01299,0.02808,0.06058,0.02190,0.41684,0.41828,-0.30000,-0.57789,-4.36868,818.34442,809.37591,0.61944,12.28027,0.57080,-0.44065,6.52346,9.79543,9.35477
54.14199,0.63739,-0.07745,-0.04228,0.18559,-0.09611,-0.62663,0.02051,0.01472,0.01299,0.02808,0.06058,0.02190,0.41684,0.41828,-0.30000,-0.57789,-4.36868,818.34442,809.37591,0.61944,12.28009,0.57080,-0.43815,6.52346,9.79543,9.35727
54.14300,0.63739,-0.07745,-0.04228,0.19012,-0.09891,-0.61421,0.02051,0.01472,0.01299,0.02808,0.06058,0.02190,0.41684,0.41828,-0.30000,-0.57789,-4.37101,818.56304,807.19238,0.61966,12.27989,0.57080,-0.43565,6.52346,9.79543,9.35977
54.14400,0.63739,-0.07745,-0.04228,0.19012,-0.09891,-0.61421,0.02051,0.01472,0.01299,0.02808,0.06058,0.02190,0.41684,0.41828,-0.30000,-0.57789,-4.37101,818.56304,807.19238,0.61966,12.27970,0.57080,-0.43328,6.52346,9.79543,9.36214
54.14500,0.53459,-0.23985,-0.00957,0.18781,-0.10395,-0.59897,0.01589,0.00712,0.01299,0.03008,0.05976,0.01635,0.40619,0.42550,-0.30000,-0.57080,-4.39754,821.04382,807.19238,0.62201,12.27950,0.57080,-0.43080,6.52346,9.84740,9.41659
54.14599,0.53459,-0.23985,-0.00957,0.18781,-0.10395,-0.59897,0.01589,0.00712,0.01299,0.03008,0.05976,0.01635,0.40619,0.42550,-0.30000,-0.57080,-4.39754,821.04382,810.10638,0.62201,12.27929,0.57080,-0.42867,6.52346,9.84740,9.41872
54.14699,0.53459,-0.23985,-0.00957,0.18715,-0.11619,-0.58797,0.01589,0.00712,0.01299,0.03008,0.05976,0.01635,0.40619,0.42550,-0.30000,-0.57080,-4.39953,821.22943,810.10638,0.62221,12.27907,0.57080,-0.42654,6.52346,9.84740,9.42085
54.14799,0.53459,-0.23985,-0.00957,0.18715,-0.11619,-0.58797,0.01589,0.00712,0.01299,0.03008,0.05976,0.01635,0.40619,0.42550,-0.30000,-0.57080,-4.39953,821.22943,807.19238,0.62221,12.27886,0.57080,-0.42469,6.52346,9.84740,9.42270
54.14899,0.53459,-0.23985,-0.00957,0.19285,-0.12674,-0.58092,0.01589,0.00712,0.01299,0.03008,0.05976,0.01635,0.40619,0.42550,-0.30000,-0.57080,-4.40126,821.39099,810.10638,0.62238,12.27863,0.57080,-0.42284,6.52346,9.84740,9.42455
54.15000,0.53459,-0.23985,-0.00957,0.19285,-0.12674,-0.58092,0.01589,0.00712,0.01299,0.03008,0.05976,0.01635,0.40619,0.42550,-0.30000,-0.57080,-4.40126,821.39099,810.10638,0.62238,12.27840,0.57080,-0.42114,6.52346,9.84740,9.42626
54.15100,0.53459,-0.23985,-0.00957,0.19680,-0.13200,-0.57118,0.01589,0.00712,0.01299,0.03008,0.05976,0.01635,0.40619,0.42550,-0.30000,-0.57080,-4.40285,821.52709,810.10638,0.62254,12.27816,0.56349,-0.41943,6.52365,9.84740,9.42796
54.15200,0.53459,-0.23985,-0.00957,0.19680,-0.13200,-0.57118,0.01589,0.00712,0.01299,0.03008,0.05976,0.01635,0.40619,0.42550,-0.30000,-0.57080,-4.40285,821.52709,810.10638,0.62254,12.27792,0.56349,-0.41806,6.52365,9.84740,9.42934
54.15299,0.53459,-0.23985,-0.00957,0.19603,-0.14055,-0.55912,0.01589,0.00712,0.01299,0.03008,0.05976,0.01635,0.40619,0.42550,-0.30000,-0.57080,-4.40414,821.64703,810.10638,0.62267,12.27767,0.56349,-0.41668,6.52365,9.84740,9.43071
54.15399,0.53459,-0.23985,-0.00957,0.19603,-0.14055,-0.55912,0.01589,0.00712,0.01299,0.03008,0.05976,0.01635,0.40619,0.42550,-0.30000,-0.57080,-4.40414,821.64703,810.10638,0.62267,12.27742,0.56349,-0.41582,6.52365,9.84740,9.43158
54.15499,0.53932,-0.22146,0.01539,0.19902,-0.15360,-0.55015,0.01485,0.00474,0.01299,0.03225,0.05865,0.01134,0.39524,0.43445,-0.30000,-0.56349,-4.43275,824.31115,810.10638,0.62520,12.27716,0.56349,-0.41483,6.52365,9.90680,9.49197
54.15599,0.53932,-0.22146,0.01539,0.19902,-0.15360,-0.55015,0.01485,0.00474,0.01299,0.03225,0.05865,0.01134,0.39524,0.43445,-0.30000,-0.56349,-4.43275,824.31115,810.10638,0.62520,12.27690,0.56349,-0.41416,6.52365,9.90680,9.49264
54.15700,0.53932,-0.22146,0.01539,0.20713,-0.16120,-0.54231,0.01485,0.00474,0.01299,0.03225,0.05865,0.01134,0.39524,0.43445,-0.30000,-0.56349,-4.43337,824.36938,810.10638,0.62528,12.27663,0.56349,-0.41349,6.52365,9.90680,9.49331
54.15800,0.53932,-0.22146,0.01539,0.20713,-0.16120,-0.54231,0.01485,0.00474,0.01299,0.03225,0.05865,0.01134,0.39524,0.43445,-0.30000,-0.56349,-4.43337,824.36938,810.10638,0.62528,12.27636,0.56349,-0.41292,6.52365,9.90680,9.49388
54.15900,0.53932,-0.22146,0.01539,0.21054,-0.16306,-0.53002,0.01485,0.00474,0.01299,0.03225,0.05865,0.01134,0.39524,0.43445,-0.30000,-0.56349,-4.43391,824.41912,810.10638,0.62536,12.27608,0.56349,-0.41234,6.52365,9.90680,9.49446
54.15999,0.53932,-0.22146,0.01539,0.21054,-0.16306,-0.53002,0.01485,0.00474,0.01299,0.03225,0.05865,0.01134,0.39524,0.43445,-0.30000,-0.56349,-4.43391,824.41912,808.64678,0.62536,12.27580,0.56349,-0.41202,6.52365,9.90680,9.49478
54.16099,0.53932,-0.22146,0.01539,0.20822,-0.17027,-0.51656,0.01485,0.00474,0.01299,0.03225,0.05865,0.01134,0.39524,0.43445,-0.30000,-0.56349,-4.43422,824.44769,808.64678,0.62541,12.27551,0.56349,-0.41169,6.52365,9.90680,9.49511
54.16199,0.53932,-0.22146,0.01539,0.20822,-0.17027,-0.51656,0.01485,0.00474,0.01299,0.03225,0.05865,0.01134,0.39524,0.43445,-0.30000,-0.56349,-4.43422,824.44769,806.46710,0.62541,12.27521,0.56349,-0.41174,6.52365,9.90680,9.49506
54.16299,0.53932,-0.22146,0.01539,0.20997,-0.18331,-0.50893,0.01485,0.00474,0.01299,0.03225,0.05865,0.01134,0.39524,0.43445,-0.30000,-0.56349,-4.43416,824.44287,808.64678,0.62544,12.27492,0.56349,-0.41180,6.52365,9.90680,9.49500
54.16400,0.53932,-0.22146,0.01539,0.20997,-0.18331,-0.50893,0.01485,0.00474,0.01299,0.03225,0.05865,0.01134,0.39524,0.43445,-0.30000,-0.56349,-4.43416,824.44287,814.51715,0.62544,12.27461,0.56349,-0.41201,6.52365,9.90680,9.49479
54.16500,0.57918,-0.07781,0.03354,0.21596,-0.19140,-0.50474,0.01659,0.00970,0.01299,0.03458,0.05712,0.00681,0.39524,0.43445,-0.30000,-0.56349,-4.43426,824.45166,814.51715,0.62548,12.27430,0.56349,-0.41222,6.52365,9.90743,9.49520
54.16600,0.57918,-0.07781,0.03354,0.21596,-0.19140,-0.50474,0.01659,0.00970,0.01299,0.03458,0.05712,0.00681,0.39524,0.43445,-0.30000,-0.56349,-4.43426,824.45166,814.51715,0.62548,12.27399,0.56349,-0.41239,6.52365,9.90743,9.49503
54.16699,0.57918,-0.07781,0.03354,0.21653,-0.19452,-0.49733,0.01659,0.00970,0.01299,0.03458,0.05712,0.00681,0.39524,0.43445,-0.30000,-0.56349,-4.43410,824.43682,818.97613,0.62550,12.27367,0.56349,-0.41256,6.52365,9.90743,9.49486
54.16799,0.57918,-0.07781,0.03354,0.21653,-0.19452,-0.49733,0.01659,0.00970,0.01299,0.03458,0.05712,0.00681,0.39524,0.43445,-0.30000,-0.56349,-4.43410,824.43682,814.51715,0.62550,12.27335,0.56349,-0.41287,6.52365,9.90743,9.49456
54.16899,0.57918,-0.07781,0.03354,0.21302,-0.20244,-0.48834,0.01659,0.00970,0.01299,0.03458,0.05712,0.00681,0.39524,0.43445,-0.30000,-0.56349,-4.43381,824.41021,821.97613,0.62550,12.27303,0.56349,-0.41318,6.52365,9.90743,9.49425
54.16999,0.57918,-0.07781,0.03354,0.21302,-0.20244,-0.48834,0.01659,0.00970,0.01299,0.03458,0.05712,0.00681,0.39524,0.43445,-0.30000,-0.56349,-4.43381,824.41021,821.97613,0.62550,12.27269,0.56349,-0.41374,6.52365,9.90743,9.49369
54.17100,0.57918,-0.07781,0.03354,0.21591,-0.21371,-0.48208,0.01659,0.00970,0.01299,0.03458,0.05712,0.00681,0.39524,0.43445,-0.30000,-0.56349,-4.43329,824.34722,821.97613,0.62548,12.27236,0.55590,-0.41430,6.52388,9.90743,9.49313
54.17200,0.57918,-0.07781,0.03354,0.21591,-0.21371,-0.48208,0.01659,0.00970,0.01299,0.03458,0.05712,0.00681,0.39524,0.43445,-0.30000,-0.56349,-4.43329,824.34722,821.97613,0.62548,12.27202,0.55590,-0.41489,6.52388,9.90743,9.49253
54.17300,0.57918,-0.07781,0.03354,0.22371,-0.21897,-0.47474,0.01659,0.00970,0.01299,0.03458,0.05712,0.00681,0.39524,0.43445,-0.30000,-0.56349,-4.43273,824.29577,821.97613,0.62547,12.27167,0.55590,-0.41549,6.52388,9.90743,9.49194
54.17399,0.57918,-0.07781,0.03354,0.22371,-0.21897,-0.47474,0.01659,0.00970,0.01299,0.03458,0.05712,0.00681,0.39524,0.43445,-0.30000,-0.56349,-4.43273,824.29577,821.97613,0.62547,12.27131,0.55590,-0.41598,6.52388,9.90743,9.49145
54.17499,0.47736,-0.25651,0.06107,0.22621,-0.22099,-0.46196,0.01247,0.00124,0.01299,0.03704,0.05525,0.00267,0.38385,0.45056,-0.30000,-0.55590,-4.47042,827.79193,815.99810,0.62879,12.27095,0.55590,-0.41630,6.52388,9.98894,9.57263
54.17599,0.47736,-0.25651,0.06107,0.22621,-0.22099,-0.46196,0.01247,0.00124,0.01299,0.03704,0.05525,0.00267,0.38385,0.45056,-0.30000,-0.55590,-4.47042,827.79193,815.99810,0.62879,12.27059,0.55590,-0.41671,6.52388,9.98894,9.57222
54.17699,0.47736,-0.25651,0.06107,0.22533,-0.22890,-0.44888,0.01247,0.00124,0.01299,0.03704,0.05525,0.00267,0.38385,0.45056,-0.30000,-0.55590,-4.47003,827.75653,815.99810,0.62879,12.27021,0.55590,-0.41712,6.52388,9.98894,9.57181
54.17800,0.47736,-0.25651,0.06107,0.22533,-0.22890,-0.44888,0.01247,0.00124,0.01299,0.03704,0.05525,0.00267,0.38385,0.45056,-0.30000,-0.55590,-4.47003,827.75653,815.99810,0.62879,12.26983,0.55590,-0.41765,6.52388,9.98894,9.57128
54.17900,0.47736,-0.25651,0.06107,0.23014,-0.23880,-0.44097,0.01247,0.00124,0.01299,0.03704,0.05525,0.00267,0.38385,0.45056,-0.30000,-0.55590,-4.46954,827.71099,815.99810,0.62879,12.26945,0.55590,-0.41818,6.52388,9.98894,9.57076
54.18000,0.47736,-0.25651,0.06107,0.23014,-0.23880,-0.44097,0.01247,0.00124,0.01299,0.03704,0.05525,0.00267,0.38385,0.45056,-0.30000,-0.55590,-4.46954,827.71099,815.25689,0.62879,12.26906,0.55590,-0.41852,6.52388,9.98894,9.57041
54.18099,0.47736,-0.25651,0.06107,0.23733,-0.24186,-0.43449,0.01247,0.00124,0.01299,0.03704,0.05525,0.00267,0.38385,0.45056,-0.30000,-0.55590,-4.46922,827.66552,815.25689,0.62879,12.26867,0.54830,-0.41887,6.52412,9.98894,9.57006
54.18199,0.47736,-0.25651,0.06107,0.23733,-0.24186,-0.43449,0.01247,0.00124,0.01299,0.03704,0.05525,0.00267,0.38385,0.45056,-0.30000,-0.55590,-4.46922,827.66552,815.25689,0.62879,12.26826,0.54830,-0.41891,6.52412,9.98894,9.57002
54.18299,0.47736,-0.25651,0.06107,0.23822,-0.24295,-0.42601,0.01247,0.00124,0.01299,0.03704,0.05525,0.00267,0.38385,0.45056,-0.30000,-0.55590,-4.46918,827.66156,815.25689,0.62883,12.26785,0.54830,-0.41896,6.52412,9.98894,9.56997
54.18399,0.47736,-0.25651,0.06107,0.23822,-0.24295,-0.42601,0.01247,0.00124,0.01299,0.03704,0.05525,0.00267,0.38385,0.45056,-0.30000,-0.55590,-4.46918,827.66156,815.25689,0.62883,12.26744,0.54830,-0.41890,6.52412,9.98894,9.57003
54.18500,0.42631,-0.26665,0.08089,0.23719,-0.25032,-0.42018,0.00898,-0.00323,0.01299,0.03966,0.05307,-0.00107,0.37245,0.45696,-0.30000,-0.54830,-4.49406,829.96252,815.25689,0.63103,12.26702,0.54830,-0.41874,6.52412,10.04200,9.62326
54.18600,0.42631,-0.26665,0.08089,0.23719,-0.25032,-0.42018,0.00898,-0.00323,0.01299,0.03966,0.05307,-0.00107,0.37245,0.45696,-0.30000,-0.54830,-4.49406,829.96252,818.97613,0.63103,12.26660,0.54830,-0.41847,6.52412,10.04200,9.62352
54.18700,0.42631,-0.26665,0.08089,0.24266,-0.25802,-0.41893,0.00898,-0.00323,0.01299,0.03966,0.05307,-0.00107,0.37245,0.45696,-0.30000,-0.54830,-4.49430,829.98510,818.97613,0.63110,12.26616,0.54830,-0.41821,6.52412,10.04200,9.62378
54.18799,0.42631,-0.26665,0.08089,0.24266,-0.25802,-0.41893,0.00898,-0.00323,0.01299,0.03966,0.05307,-0.00107,0.37245,0.45696,-0.30000,-0.54830,-4.49430,829.98510,820.47338,0.63110,12.26573,0.54830,-0.41759,6.52412,10.04200,9.62440
54.18899,0.42631,-0.26665,0.08089,0.24965,-0.25815,-0.41568,0.00898,-0.00323,0.01299,0.03966,0.05307,-0.00107,0.37245,0.45696,-0.30000,-0.54830,-4.49488,830.03857,820.47338,0.63119,12.26529,0.54830,-0.41697,6.52412,10.04200,9.62502
54.18999,0.42631,-0.26665,0.08089,0.24965,-0.25815,-0.41568,0.00898,-0.00323,0.01299,0.03966,0.05307,-0.00107,0.37245,0.45696,-0.30000,-0.54830,-4.49488,830.03857,820.47338,0.63119,12.26484,0.54830,-0.41598,6.52412,10.04200,9.62601
