time,target gyro x,target gyro y,target gyro z,gyro x,gyro y,gyro z,target angle x,target angle y,target angle z,angle x,angle y,angle z,target vel z,vel z,target pos z,pos z,desire thrust,desire rotor speed,rotor speed,motor_output,bettery voltage,height,thrust,imu_z,acc_z_d,acc_z_com
44.66899,0.83940,0.61354,-0.64542,-0.14615,0.16430,-0.12657,0.04930,-0.01296,1.79826,0.01346,-0.08698,1.92617,-0.00209,0.00551,-0.64349,-0.64210,-4.49208,829.95336,838.87658,0.60780,12.73571,0.64210,-0.20456,-9.87390,9.82359,9.61903
44.66999,0.83940,0.61354,-0.64542,-0.14615,0.16430,-0.12657,0.04930,-0.01296,1.79826,0.01346,-0.08698,1.92617,-0.00209,0.00551,-0.64349,-0.64210,-4.49208,829.95336,844.40063,0.60780,12.73575,0.64210,-0.20466,-9.87390,9.82359,9.61893
44.67100,0.83940,0.61354,-0.64542,-0.13948,0.17216,-0.12724,0.04930,-0.01296,1.79826,0.01346,-0.08698,1.92617,-0.00209,0.00551,-0.64349,-0.64210,-4.49198,829.94348,844.40063,0.60779,12.73580,0.64210,-0.20479,-9.88813,9.82359,9.61880
44.67200,0.83940,0.61354,-0.64542,-0.13948,0.17216,-0.12724,0.04930,-0.01296,1.79826,0.01346,-0.08698,1.92617,-0.00209,0.00551,-0.64349,-0.64210,-4.49198,829.94348,844.40063,0.60779,12.73585,0.64210,-0.20491,-9.88813,9.82359,9.61867
44.67300,0.83940,0.61354,-0.64542,-0.13819,0.18416,-0.11884,0.04930,-0.01296,1.79826,0.01346,-0.08698,1.92617,-0.00209,0.00551,-0.64349,-0.64210,-4.49194,829.94055,844.40063,0.60778,12.73590,0.64210,-0.20485,-9.79335,9.82359,9.61873
44.67399,0.83940,0.61354,-0.64542,-0.13819,0.18416,-0.11884,0.04930,-0.01296,1.79826,0.01346,-0.08698,1.92617,-0.00209,0.00551,-0.64349,-0.64210,-4.49194,829.94055,844.40063,0.60778,12.73595,0.64210,-0.20479,-9.79335,9.82359,9.61879
44.67499,0.83940,0.61354,-0.64542,-0.14466,0.19149,-0.10631,0.04930,-0.01296,1.79826,0.01346,-0.08698,1.92617,-0.00209,0.00551,-0.64349,-0.64210,-4.49202,829.94757,844.40063,0.60778,12.73601,0.64210,-0.20469,-9.77236,9.82359,9.61889
44.67599,0.83940,0.61354,-0.64542,-0.14466,0.19149,-0.10631,0.04930,-0.01296,1.79826,0.01346,-0.08698,1.92617,-0.00209,0.00551,-0.64349,-0.64210,-4.49202,829.94757,844.40063,0.60778,12.73606,0.64210,-0.20459,-9.77236,9.82359,9.61899
44.67699,-1.57079,1.57079,-0.66289,-0.14782,0.19190,-0.10025,-0.12160,0.09758,1.79826,0.01191,-0.08523,1.92495,0.52290,0.00551,-0.29349,-0.64210,-3.79629,762.97320,838.87658,0.54712,12.73612,0.64210,-0.20766,-9.87373,8.33676,8.12910
44.67800,-1.57079,1.57079,-0.66289,-0.14782,0.19190,-0.10025,-0.12160,0.09758,1.79826,0.01191,-0.08523,1.92495,0.52290,0.00551,-0.29349,-0.64210,-3.79629,762.97320,844.40063,0.54712,12.73619,0.64210,-0.21074,-9.87373,8.33676,8.12602
44.67900,-1.57079,1.57079,-0.66289,-0.14592,0.19611,-0.10066,-0.12160,0.09758,1.79826,0.01191,-0.08523,1.92495,0.52290,0.00551,-0.29349,-0.64210,-3.79338,762.68084,838.87658,0.54685,12.73625,0.64210,-0.21389,-9.91420,8.33676,8.12287
44.68000,-1.57079,1.57079,-0.66289,-0.14592,0.19611,-0.10066,-0.12160,0.09758,1.79826,0.01191,-0.08523,1.92495,0.52290,0.00551,-0.29349,-0.64210,-3.79338,762.68084,836.53112,0.54685,12.73632,0.64210,-0.21705,-9.91420,8.33676,8.11971
44.68099,-1.57079,1.57079,-0.66289,-0.14800,0.20701,-0.10103,-0.12160,0.09758,1.79826,0.01191,-0.08523,1.92495,0.52290,0.00551,-0.29349,-0.64210,-3.79051,762.39215,836.53112,0.54659,12.73639,0.64210,-0.22004,-9.83323,8.33676,8.11672
44.68199,-1.57079,1.57079,-0.66289,-0.14800,0.20701,-0.10103,-0.12160,0.09758,1.79826,0.01191,-0.08523,1.92495,0.52290,0.00551,-0.29349,-0.64210,-3.79051,762.39215,834.19879,0.54659,12.73646,0.64210,-0.22303,-9.83323,8.33676,8.11373
44.68299,-1.57079,1.57079,-0.66289,-0.15218,0.21541,-0.10102,-0.12160,0.09758,1.79826,0.01191,-0.08523,1.92495,0.52290,0.00551,-0.29349,-0.64210,-3.78777,762.11706,834.19879,0.54633,12.73654,0.64210,-0.22589,-9.76803,8.33676,8.11086
44.68399,-1.57079,1.57079,-0.66289,-0.15218,0.21541,-0.10102,-0.12160,0.09758,1.79826,0.01191,-0.08523,1.92495,0.52290,0.00551,-0.29349,-0.64210,-3.78777,762.11706,834.19879,0.54633,12.73661,0.64210,-0.22876,-9.76803,8.33676,8.10800
44.68500,-1.57079,1.57079,-0.66289,-0.14944,0.21994,-0.10158,-0.12160,0.09758,1.79826,0.01191,-0.08523,1.92495,0.52290,0.00551,-0.29349,-0.64210,-3.78511,761.84906,834.19879,0.54608,12.73669,0.64210,-0.23160,-9.75733,8.33676,8.10516
44.68600,-1.57079,1.57079,-0.66289,-0.14944,0.21994,-0.10158,-0.12160,0.09758,1.79826,0.01191,-0.08523,1.92495,0.52290,0.00551,-0.29349,-0.64210,-3.78511,761.84906,832.65112,0.54608,12.73677,0.64210,-0.23444,-9.75732,8.33676,8.10232
44.68700,0.21531,0.79156,-0.63433,-0.14419,0.22723,-0.09703,-0.05495,0.05037,1.79826,0.01026,-0.08319,1.92393,0.52290,0.00102,-0.29349,-0.64210,-3.73967,757.26281,832.65112,0.54192,12.73686,0.64210,-0.23739,-9.72176,8.24527,8.00787
44.68799,0.21531,0.79156,-0.63433,-0.14419,0.22723,-0.09703,-0.05495,0.05037,1.79826,0.01026,-0.08319,1.92393,0.52290,0.00102,-0.29349,-0.64210,-3.73967,757.26281,831.87939,0.54192,12.73694,0.64210,-0.24035,-9.72176,8.24527,8.00492
44.68899,0.21531,0.79156,-0.63433,-0.14593,0.23411,-0.08520,-0.05495,0.05037,1.79826,0.01026,-0.08319,1.92393,0.52290,0.00102,-0.29349,-0.64210,-3.73692,756.98455,830.34033,0.54166,12.73703,0.64210,-0.24328,-9.71057,8.24527,8.00198
44.68999,0.21531,0.79156,-0.63433,-0.14593,0.23411,-0.08520,-0.05495,0.05037,1.79826,0.01026,-0.08319,1.92393,0.52290,0.00102,-0.29349,-0.64210,-3.73692,756.98455,830.34033,0.54166,12.73712,0.64210,-0.24621,-9.71057,8.24527,7.99905
44.69100,0.21531,0.79156,-0.63433,-0.14958,0.23358,-0.07390,-0.05495,0.05037,1.79826,0.01026,-0.08319,1.92393,0.52290,0.00102,-0.29349,-0.64210,-3.73409,756.69763,830.34033,0.54140,12.73722,0.64210,-0.24934,-9.81258,8.24527,7.99592
44.69200,0.21531,0.79156,-0.63433,-0.14958,0.23358,-0.07390,-0.05495,0.05037,1.79826,0.01026,-0.08319,1.92393,0.52290,0.00102,-0.29349,-0.64210,-3.73409,756.69763,830.34033,0.54140,12.73731,0.64210,-0.25248,-9.81258,8.24527,7.99278
44.69300,0.21531,0.79156,-0.63433,-0.14755,0.23211,-0.06726,-0.05495,0.05037,1.79826,0.01026,-0.08319,1.92393,0.52290,0.00102,-0.29349,-0.64210,-3.73108,756.39190,831.10913,0.54111,12.73740,0.64210,-0.25580,-9.90779,8.24527,7.98946
44.69400,0.21531,0.79156,-0.63433,-0.14755,0.23211,-0.06726,-0.05495,0.05037,1.79826,0.01026,-0.08319,1.92393,0.52290,0.00102,-0.29349,-0.64210,-3.73108,756.39190,831.10913,0.54111,12.73750,0.64210,-0.25913,-9.90779,8.24527,7.98613
44.69499,0.21531,0.79156,-0.63433,-0.14659,0.23870,-0.05901,-0.05495,0.05037,1.79826,0.01026,-0.08319,1.92393,0.52290,0.00102,-0.29349,-0.64210,-3.72800,756.07977,830.34033,0.54082,12.73760,0.64210,-0.26239,-9.87931,8.24527,7.98287
44.69599,0.21531,0.79156,-0.63433,-0.14659,0.23870,-0.05901,-0.05495,0.05037,1.79826,0.01026,-0.08319,1.92393,0.52290,0.00102,-0.29349,-0.64210,-3.72800,756.07977,830.34033,0.54082,12.73771,0.64200,-0.26566,-9.87931,8.24527,7.97960
44.69699,0.89150,0.51065,-0.62704,-0.15222,0.24752,-0.04524,-0.01621,0.03253,1.79826,0.00862,-0.08090,1.92320,0.52274,0.00146,-0.29349,-0.64200,-3.71763,755.02758,829.57287,0.53986,12.73781,0.64200,-0.26890,-9.84833,8.22957,7.96066
44.69800,0.89150,0.51065,-0.62704,-0.15222,0.24752,-0.04524,-0.01621,0.03253,1.79826,0.00862,-0.08090,1.92320,0.52274,0.00146,-0.29349,-0.64200,-3.71763,755.02758,829.57287,0.53986,12.73792,0.64200,-0.27214,-9.84833,8.22957,7.95743
44.69900,0.89150,0.51065,-0.62704,-0.15577,0.25081,-0.02864,-0.01621,0.03253,1.79826,0.00862,-0.08090,1.92320,0.52274,0.00146,-0.29349,-0.64200,-3.71456,754.71588,829.57287,0.53957,12.73803,0.64200,-0.27547,-9.89630,8.22957,7.95409
44.70000,0.89150,0.51065,-0.62704,-0.15577,0.25081,-0.02864,-0.01621,0.03253,1.79826,0.00862,-0.08090,1.92320,0.52274,0.00146,-0.29349,-0.64200,-3.71456,754.71588,829.57287,0.53957,12.73814,0.64200,-0.27880,-9.89630,8.22957,7.95076
44.70100,0.89150,0.51065,-0.62704,-0.15374,0.25451,-0.00708,-0.01621,0.03253,1.79826,0.00862,-0.08090,1.92320,0.52274,0.00146,-0.29349,-0.64200,-3.71145,754.40014,829.57287,0.53927,12.73826,0.64200,-0.28212,-9.88938,8.22957,7.94744
44.70199,0.89150,0.51065,-0.62704,-0.15374,0.25451,-0.00708,-0.01621,0.03253,1.79826,0.00862,-0.08090,1.92320,0.52274,0.00146,-0.29349,-0.64200,-3.71145,754.40014,827.27917,0.53927,12.73837,0.64200,-0.28544,-9.88938,8.22957,7.94412
44.70299,0.89150,0.51065,-0.62704,-0.15746,0.26395,0.02599,-0.01621,0.03253,1.79826,0.00862,-0.08090,1.92320,0.52274,0.00146,-0.29349,-0.64200,-3.70846,754.09558,820.47338,0.53898,12.73849,0.64200,-0.28854,-9.77761,8.22957,7.94102
44.70399,0.89150,0.51065,-0.62704,-0.15746,0.26395,0.02599,-0.01621,0.03253,1.79826,0.00862,-0.08090,1.92320,0.52274,0.00146,-0.29349,-0.64200,-3.70846,754.09558,820.47338,0.53898,12.73861,0.64200,-0.29164,-9.77761,8.22957,7.93793
44.70500,0.89150,0.51065,-0.62704,-0.17041,0.27162,0.06827,-0.01621,0.03253,1.79826,0.00862,-0.08090,1.92320,0.52274,0.00146,-0.29349,-0.64200,-3.70562,753.80676,816.74053,0.53871,12.73874,0.64200,-0.29462,-9.72268,8.22957,7.93494
44.70600,0.89150,0.51065,-0.62704,-0.17041,0.27162,0.06827,-0.01621,0.03253,1.79826,0.00862,-0.08090,1.92320,0.52274,0.00146,-0.29349,-0.64200,-3.70562,753.80676,816.74053,0.53871,12.73886,0.64210,-0.29761,-9.72273,8.22957,7.93196
44.70700,0.93652,0.54862,-0.62748,-0.18024,0.27382,0.11072,0.00417,0.02591,1.79826,0.00677,-0.07833,1.92340,0.52290,-0.00070,-0.29349,-0.64210,-3.69830,753.06213,816.74053,0.53803,12.73899,0.64210,-0.30072,-9.77719,8.22000,7.91927
44.70800,0.93652,0.54862,-0.62748,-0.18024,0.27382,0.11072,0.00417,0.02591,1.79826,0.00677,-0.07833,1.92340,0.52290,-0.00070,-0.29349,-0.64210,-3.69830,753.06213,816.74053,0.53803,12.73912,0.64210,-0.30384,-9.77719,8.22000,7.91616
44.70899,0.93652,0.54862,-0.62748,-0.18241,0.27961,0.15201,0.00417,0.02591,1.79826,0.00677,-0.07833,1.92340,0.52290,-0.00070,-0.29349,-0.64210,-3.69540,752.76672,816.74053,0.53775,12.73925,0.64210,-0.30693,-9.76874,8.22000,7.91306
44.70999,0.93652,0.54862,-0.62748,-0.18241,0.27961,0.15201,0.00417,0.02591,1.79826,0.00677,-0.07833,1.92340,0.52290,-0.00070,-0.29349,-0.64210,-3.69540,752.76672,810.10638,0.53775,12.73938,0.64210,-0.31003,-9.76874,8.22000,7.90996
44.71099,0.93652,0.54862,-0.62748,-0.18734,0.29163,0.19689,0.00417,0.02591,1.79826,0.00677,-0.07833,1.92340,0.52290,-0.00070,-0.29349,-0.64210,-3.69263,752.48474,810.10638,0.53748,12.73951,0.64210,-0.31286,-9.63474,8.22000,7.90713
44.71200,0.93652,0.54862,-0.62748,-0.18734,0.29163,0.19689,0.00417,0.02591,1.79826,0.00677,-0.07833,1.92340,0.52290,-0.00070,-0.29349,-0.64210,-3.69263,752.48474,818.22955,0.53748,12.73965,0.64210,-0.31569,-9.63474,8.22000,7.90430
44.71300,0.93652,0.54862,-0.62748,-0.19767,0.29959,0.24444,0.00417,0.02591,1.79826,0.00677,-0.07833,1.92340,0.52290,-0.00070,-0.29349,-0.64210,-3.69007,752.22442,808.64678,0.53724,12.73979,0.64210,-0.31833,-9.53987,8.22000,7.90166
44.71400,0.93652,0.54862,-0.62748,-0.19767,0.29959,0.24444,0.00417,0.02591,1.79826,0.00677,-0.07833,1.92340,0.52290,-0.00070,-0.29349,-0.64210,-3.69007,752.22442,808.64678,0.53724,12.73992,0.64210,-0.32097,-9.53987,8.22000,7.89902
44.71500,0.93652,0.54862,-0.62748,-0.20374,0.30095,0.29132,0.00417,0.02591,1.79826,0.00677,-0.07833,1.92340,0.52290,-0.00070,-0.29349,-0.64210,-3.68760,751.97192,801.42669,0.53700,12.74006,0.64210,-0.32364,-9.55303,8.22000,7.89636
44.71599,0.93652,0.54862,-0.62748,-0.20374,0.30095,0.29132,0.00417,0.02591,1.79826,0.00677,-0.07833,1.92340,0.52290,-0.00070,-0.29349,-0.64210,-3.68760,751.97192,811.57135,0.53700,12.74020,0.64210,-0.32630,-9.55303,8.22000,7.89369
44.71699,0.66431,0.49206,-0.63853,-0.20534,0.30539,0.34127,0.00469,0.01751,1.79826,0.00437,-0.07544,1.92590,0.52290,-0.00070,-0.29349,-0.64210,-3.68444,751.64953,807.91894,0.53669,12.74034,0.64210,-0.32892,-9.52881,8.21852,7.88959
44.71799,0.66431,0.49206,-0.63853,-0.20534,0.30539,0.34127,0.00469,0.01751,1.79826,0.00437,-0.07544,1.92590,0.52290,-0.00070,-0.29349,-0.64210,-3.68444,751.64953,807.91894,0.53669,12.74049,0.64210,-0.33154,-9.52881,8.21852,7.88697
44.71900,0.66431,0.49206,-0.63853,-0.21293,0.31400,0.39821,0.00469,0.01751,1.79826,0.00437,-0.07544,1.92590,0.52290,-0.00070,-0.29349,-0.64210,-3.68208,751.40911,801.42669,0.53646,12.74063,0.64210,-0.33397,-9.43211,8.21852,7.88454
44.72000,0.66431,0.49206,-0.63853,-0.21293,0.31400,0.39821,0.00469,0.01751,1.79826,0.00437,-0.07544,1.92590,0.52290,-0.00070,-0.29349,-0.64210,-3.68208,751.40911,798.57464,0.53646,12.74078,0.64210,-0.33640,-9.43211,8.21852,7.88212
44.72100,0.66431,0.49206,-0.63853,-0.22559,0.31720,0.45590,0.00469,0.01751,1.79826,0.00437,-0.07544,1.92590,0.52290,-0.00070,-0.29349,-0.64210,-3.67983,751.17993,807.91894,0.53624,12.74093,0.64210,-0.33878,-9.40943,8.21852,7.87973
44.72200,0.66431,0.49206,-0.63853,-0.22559,0.31720,0.45590,0.00469,0.01751,1.79826,0.00437,-0.07544,1.92590,0.52290,-0.00070,-0.29349,-0.64210,-3.67983,751.17993,807.91894,0.53624,12.74108,0.64210,-0.34116,-9.40943,8.21852,7.87735
44.72299,0.66431,0.49206,-0.63853,-0.23154,0.31579,0.50694,0.00469,0.01751,1.79826,0.00437,-0.07544,1.92590,0.52290,-0.00070,-0.29349,-0.64210,-3.67757,750.94909,807.91894,0.53602,12.74123,0.64210,-0.34362,-9.44844,8.21852,7.87489
44.72399,0.66431,0.49206,-0.63853,-0.23154,0.31579,0.50694,0.00469,0.01751,1.79826,0.00437,-0.07544,1.92590,0.52290,-0.00070,-0.29349,-0.64210,-3.67757,750.94909,811.57135,0.53602,12.74138,0.64210,-0.34608,-9.44844,8.21852,7.87243
44.72499,0.66431,0.49206,-0.63853,-0.23062,0.32040,0.55472,0.00469,0.01751,1.79826,0.00437,-0.07544,1.92590,0.52290,-0.00070,-0.29349,-0.64210,-3.67537,750.72406,811.57135,0.53580,12.74153,0.64210,-0.34834,-9.34778,8.21852,7.87017
44.72600,0.66431,0.49206,-0.63853,-0.23062,0.32040,0.55472,0.00469,0.01751,1.79826,0.00437,-0.07544,1.92590,0.52290,-0.00070,-0.29349,-0.64210,-3.67537,750.72406,811.57135,0.53580,12.74169,0.64210,-0.35060,-9.34779,8.21852,7.86792
44.72700,0.78740,0.64576,-0.66361,-0.23351,0.32965,0.60538,0.01584,0.02048,1.79826,0.00143,-0.07227,1.93115,0.52290,-0.00275,-0.29349,-0.64210,-3.67127,750.30554,811.57135,0.53541,12.74184,0.64210,-0.35239,-9.11050,8.21380,7.86140
44.72800,0.78740,0.64576,-0.66361,-0.23351,0.32965,0.60538,0.01584,0.02048,1.79826,0.00143,-0.07227,1.93115,0.52290,-0.00275,-0.29349,-0.64210,-3.67127,750.30554,809.37591,0.53541,12.74200,0.64210,-0.35419,-9.11050,8.21380,7.85961
44.72900,0.78740,0.64576,-0.66361,-0.23974,0.33196,0.65690,0.01584,0.02048,1.79826,0.00143,-0.07227,1.93115,0.52290,-0.00275,-0.29349,-0.64210,-3.66974,750.14929,809.37591,0.53526,12.74216,0.64210,-0.35567,-8.95397,8.21380,7.85813
44.72999,0.78740,0.64576,-0.66361,-0.23974,0.33196,0.65690,0.01584,0.02048,1.79826,0.00143,-0.07227,1.93115,0.52290,-0.00275,-0.29349,-0.64210,-3.66974,750.14929,809.37591,0.53526,12.74233,0.64210,-0.35715,-8.95397,8.21380,7.85665
44.73099,0.78740,0.64576,-0.66361,-0.23932,0.32801,0.70595,0.01584,0.02048,1.79826,0.00143,-0.07227,1.93115,0.52290,-0.00275,-0.29349,-0.64210,-3.66842,750.01397,809.37591,0.53512,12.74250,0.64210,-0.35850,-8.89088,8.21380,7.85529
44.73199,0.78740,0.64576,-0.66361,-0.23932,0.32801,0.70595,0.01584,0.02048,1.79826,0.00143,-0.07227,1.93115,0.52290,-0.00275,-0.29349,-0.64210,-3.66842,750.01397,801.42669,0.53512,12.74267,0.64210,-0.35985,-8.89088,8.21380,7.85394
44.73300,0.78740,0.64576,-0.66361,-0.23425,0.32826,0.75649,0.01584,0.02048,1.79826,0.00143,-0.07227,1.93115,0.52290,-0.00275,-0.29349,-0.64210,-3.66728,749.89746,794.33441,0.53500,12.74284,0.64210,-0.36094,-8.75713,8.21380,7.85285
44.73400,0.78740,0.64576,-0.66361,-0.23425,0.32826,0.75649,0.01584,0.02048,1.79826,0.00143,-0.07227,1.93115,0.52290,-0.00275,-0.29349,-0.64210,-3.66728,749.89746,794.33441,0.53500,12.74302,0.64210,-0.36203,-8.75713,8.21380,7.85177
44.73500,0.78740,0.64576,-0.66361,-0.23567,0.33159,0.81080,0.01584,0.02048,1.79826,0.00143,-0.07227,1.93115,0.52290,-0.00275,-0.29349,-0.64210,-3.66642,749.80999,790.83514,0.53491,12.74319,0.64210,-0.36277,-8.58651,8.21380,7.85102
44.73600,0.78740,0.64576,-0.66361,-0.23567,0.33159,0.81080,0.01584,0.02048,1.79826,0.00143,-0.07227,1.93115,0.52290,-0.00275,-0.29349,-0.64210,-3.66642,749.80999,790.83514,0.53491,12.74338,0.64210,-0.36352,-8.58663,8.21380,7.85027
44.73699,0.59059,0.55979,-0.70083,-0.24180,0.32898,0.86103,0.01147,0.01609,1.79826,-0.00176,-0.06895,1.93896,0.52290,-0.00275,-0.29349,-0.64210,-3.66524,749.68859,790.83514,0.53478,12.74356,0.64210,-0.36417,-8.53630,8.21265,7.84848
44.73799,0.59059,0.55979,-0.70083,-0.24180,0.32898,0.86103,0.01147,0.01609,1.79826,-0.00176,-0.06895,1.93896,0.52290,-0.00275,-0.29349,-0.64210,-3.66524,749.68859,794.33441,0.53478,12.74375,0.64210,-0.36481,-8.53630,8.21265,7.84783
44.73899,0.59059,0.55979,-0.70083,-0.24124,0.32361,0.90048,0.01147,0.01609,1.79826,-0.00176,-0.06895,1.93896,0.52290,-0.00275,-0.29349,-0.64210,-3.66463,749.62664,790.83514,0.53471,12.74394,0.64210,-0.36546,-8.53727,8.21265,7.84718
44.74000,0.59059,0.55979,-0.70083,-0.24124,0.32361,0.90048,0.01147,0.01609,1.79826,-0.00176,-0.06895,1.93896,0.52290,-0.00275,-0.29349,-0.64210,-3.66463,749.62664,794.33441,0.53471,12.74414,0.64210,-0.36611,-8.53727,8.21265,7.84653
44.74100,0.59059,0.55979,-0.70083,-0.23570,0.32553,0.93415,0.01147,0.01609,1.79826,-0.00176,-0.06895,1.93896,0.52290,-0.00275,-0.29349,-0.64210,-3.66415,749.57769,790.83514,0.53465,12.74433,0.64210,-0.36649,-8.40047,8.21265,7.84616
44.74200,0.59059,0.55979,-0.70083,-0.23570,0.32553,0.93415,0.01147,0.01609,1.79826,-0.00176,-0.06895,1.93896,0.52290,-0.00275,-0.29349,-0.64210,-3.66415,749.57769,790.83514,0.53465,12.74453,0.64210,-0.36686,-8.40047,8.21265,7.84578
44.74300,0.59059,0.55979,-0.70083,-0.23646,0.33112,0.96904,0.01147,0.01609,1.79826,-0.00176,-0.06895,1.93896,0.52290,-0.00275,-0.29349,-0.64210,-3.66401,749.56323,790.83514,0.53462,12.74473,0.64210,-0.36679,-8.17668,8.21265,7.84585
44.74399,0.59059,0.55979,-0.70083,-0.23646,0.33112,0.96904,0.01147,0.01609,1.79826,-0.00176,-0.06895,1.93896,0.52290,-0.00275,-0.29349,-0.64210,-3.66401,749.56323,795.03796,0.53462,12.74493,0.64210,-0.36672,-8.17668,8.21265,7.84593
44.74499,0.59059,0.55979,-0.70083,-0.24175,0.32907,1.00371,0.01147,0.01609,1.79826,-0.00176,-0.06895,1.93896,0.52290,-0.00275,-0.29349,-0.64210,-3.66418,749.58068,795.03796,0.53462,12.74514,0.64210,-0.36642,-8.06557,8.21265,7.84622
44.74599,0.59059,0.55979,-0.70083,-0.24175,0.32907,1.00371,0.01147,0.01609,1.79826,-0.00176,-0.06895,1.93896,0.52290,-0.00275,-0.29349,-0.64210,-3.66418,749.58068,795.03796,0.53462,12.74535,0.64219,-0.36613,-8.06561,8.21265,7.84651
44.74700,0.50839,0.67073,-0.74820,-0.24030,0.32183,1.03568,0.00661,0.02052,1.79826,-0.00508,-0.06561,1.94891,0.52304,-0.00574,-0.29349,-0.64219,-3.66020,749.17340,792.23114,0.53423,12.74556,0.64219,-0.36581,-8.04534,8.20351,7.83769
44.74800,0.50839,0.67073,-0.74820,-0.24030,0.32183,1.03568,0.00661,0.02052,1.79826,-0.00508,-0.06561,1.94891,0.52304,-0.00574,-0.29349,-0.64219,-3.66020,749.17340,792.23114,0.53423,12.74578,0.64219,-0.36550,-8.04534,8.20351,7.83801
44.74900,0.50839,0.67073,-0.74820,-0.23377,0.32009,1.06946,0.00661,0.02052,1.79826,-0.00508,-0.06561,1.94891,0.52304,-0.00574,-0.29349,-0.64219,-3.66059,749.21307,790.83514,0.53425,12.74601,0.64219,-0.36498,-7.94635,8.20351,7.83853
44.75000,0.50839,0.67073,-0.74820,-0.23377,0.32009,1.06946,0.00661,0.02052,1.79826,-0.00508,-0.06561,1.94891,0.52304,-0.00574,-0.29349,-0.64219,-3.66059,749.21307,790.83514,0.53425,12.74624,0.64219,-0.36447,-7.94635,8.20351,7.83904
44.75099,0.50839,0.67073,-0.74820,-0.23324,0.32192,1.10726,0.00661,0.02052,1.79826,-0.00508,-0.06561,1.94891,0.52304,-0.00574,-0.29349,-0.64219,-3.66119,749.27453,790.83514,0.53429,12.74647,0.64219,-0.36370,-7.81786,8.20351,7.83981
44.75199,0.50839,0.67073,-0.74820,-0.23324,0.32192,1.10726,0.00661,0.02052,1.79826,-0.00508,-0.06561,1.94891,0.52304,-0.00574,-0.29349,-0.64219,-3.66119,749.27453,787.36657,0.53429,12.74671,0.64219,-0.36293,-7.81786,8.20351,7.84058
44.75299,0.50839,0.67073,-0.74820,-0.23707,0.31805,1.14101,0.00661,0.02052,1.79826,-0.00508,-0.06561,1.94891,0.52304,-0.00574,-0.29349,-0.64219,-3.66189,749.34619,787.36657,0.53433,12.74695,0.64219,-0.36220,-7.83932,8.20351,7.84131
44.75400,0.50839,0.67073,-0.74820,-0.23707,0.31805,1.14101,0.00661,0.02052,1.79826,-0.00508,-0.06561,1.94891,0.52304,-0.00574,-0.29349,-0.64219,-3.66189,749.34619,783.92828,0.53433,12.74720,0.64219,-0.36147,-7.83932,8.20351,7.84204
44.75500,0.50839,0.67073,-0.74820,-0.23408,0.31197,1.16404,0.00661,0.02052,1.79826,-0.00508,-0.06561,1.94891,0.52304,-0.00574,-0.29349,-0.64219,-3.66247,749.40600,783.92828,0.53436,12.74744,0.64219,-0.36095,-7.94129,8.20351,7.84256
44.75600,0.50839,0.67073,-0.74820,-0.23408,0.31197,1.16404,0.00661,0.02052,1.79826,-0.00508,-0.06561,1.94891,0.52304,-0.00574,-0.29349,-0.64219,-3.66247,749.40600,780.51989,0.53436,12.74770,0.64210,-0.36042,-7.94130,8.20351,7.84309
44.75699,0.61033,0.69720,-0.80293,-0.22607,0.31411,1.18213,0.00894,0.02391,1.79826,-0.00838,-0.06234,1.96033,0.52290,0.00240,-0.29349,-0.64210,-3.67501,750.68737,780.51989,0.53550,12.74796,0.64210,-0.35978,-7.91014,8.22919,7.86941
44.75799,0.61033,0.69720,-0.80293,-0.22607,0.31411,1.18213,0.00894,0.02391,1.79826,-0.00838,-0.06234,1.96033,0.52290,0.00240,-0.29349,-0.64210,-3.67501,750.68737,780.51989,0.53550,12.74822,0.64210,-0.35914,-7.91014,8.22919,7.87004
44.75899,0.61033,0.69720,-0.80293,-0.22442,0.32124,1.20314,0.00894,0.02391,1.79826,-0.00838,-0.06234,1.96033,0.52290,0.00240,-0.29349,-0.64210,-3.67574,750.76147,779.84179,0.53555,12.74848,0.64210,-0.35823,-7.77158,8.22919,7.87096
44.75999,0.61033,0.69720,-0.80293,-0.22442,0.32124,1.20314,0.00894,0.02391,1.79826,-0.00838,-0.06234,1.96033,0.52290,0.00240,-0.29349,-0.64210,-3.67574,750.76147,780.51989,0.53555,12.74875,0.64210,-0.35731,-7.77158,8.22919,7.87187
44.76100,0.61033,0.69720,-0.80293,-0.22706,0.32155,1.22499,0.00894,0.02391,1.79826,-0.00838,-0.06234,1.96033,0.52290,0.00240,-0.29349,-0.64210,-3.67665,750.85437,778.48907,0.53561,12.74903,0.64210,-0.35628,-7.71285,8.22919,7.87291
44.76200,0.61033,0.69720,-0.80293,-0.22706,0.32155,1.22499,0.00894,0.02391,1.79826,-0.00838,-0.06234,1.96033,0.52290,0.00240,-0.29349,-0.64210,-3.67665,750.85437,778.48907,0.53561,12.74930,0.64210,-0.35525,-7.71285,8.22919,7.87394
44.76300,0.61033,0.69720,-0.80293,-0.22177,0.31568,1.24314,0.00894,0.02391,1.79826,-0.00838,-0.06234,1.96033,0.52290,0.00240,-0.29349,-0.64210,-3.67759,750.95062,777.14105,0.53567,12.74958,0.64210,-0.35426,-7.73615,8.22919,7.87493
44.76399,0.61033,0.69720,-0.80293,-0.22177,0.31568,1.24314,0.00894,0.02391,1.79826,-0.00838,-0.06234,1.96033,0.52290,0.00240,-0.29349,-0.64210,-3.67759,750.95062,777.14105,0.53567,12.74987,0.64210,-0.35328,-7.73615,8.22919,7.87591
44.76499,0.61033,0.69720,-0.80293,-0.20986,0.31340,1.26087,0.00894,0.02391,1.79826,-0.00838,-0.06234,1.96033,0.52290,0.00240,-0.29349,-0.64210,-3.67855,751.04852,777.14105,0.53574,12.75016,0.64210,-0.35221,-7.69605,8.22919,7.87698
44.76599,0.61033,0.69720,-0.80293,-0.20986,0.31340,1.26087,0.00894,0.02391,1.79826,-0.00838,-0.06234,1.96033,0.52290,0.00240,-0.29349,-0.64210,-3.67855,751.04852,777.14105,0.53574,12.75046,0.64210,-0.35114,-7.69612,8.22919,7.87804
44.76699,0.60940,0.56143,-0.86438,-0.20407,0.31405,1.28156,0.00827,0.01955,1.79826,-0.01151,-0.05894,1.97273,0.52290,0.00240,-0.29349,-0.64210,-3.67922,751.11706,777.14105,0.53577,12.75076,0.64210,-0.34994,-7.62843,8.22837,7.87842
44.76800,0.60940,0.56143,-0.86438,-0.20407,0.31405,1.28156,0.00827,0.01955,1.79826,-0.01151,-0.05894,1.97273,0.52290,0.00240,-0.29349,-0.64210,-3.67922,751.11706,778.48907,0.53577,12.75107,0.64210,-0.34874,-7.62843,8.22837,7.87962
44.76900,0.60940,0.56143,-0.86438,-0.20464,0.30983,1.29944,0.00827,0.01955,1.79826,-0.01151,-0.05894,1.97273,0.52290,0.00240,-0.29349,-0.64210,-3.68027,751.22424,778.48907,0.53584,12.75138,0.64210,-0.34770,-7.70396,8.22837,7.88067
44.77000,0.60940,0.56143,-0.86438,-0.20464,0.30983,1.29944,0.00827,0.01955,1.79826,-0.01151,-0.05894,1.97273,0.52290,0.00240,-0.29349,-0.64210,-3.68027,751.22424,778.48907,0.53584,12.75170,0.64210,-0.34665,-7.70396,8.22837,7.88171
44.77099,0.60940,0.56143,-0.86438,-0.20013,0.30447,1.30882,0.00827,0.01955,1.79826,-0.01151,-0.05894,1.97273,0.52290,0.00240,-0.29349,-0.64210,-3.68109,751.30865,773.12475,0.53589,12.75203,0.64210,-0.34593,-7.86752,8.22837,7.88244
44.77199,0.60940,0.56143,-0.86438,-0.20013,0.30447,1.30882,0.00827,0.01955,1.79826,-0.01151,-0.05894,1.97273,0.52290,0.00240,-0.29349,-0.64210,-3.68109,751.30865,778.48907,0.53589,12.75235,0.64210,-0.34520,-7.86752,8.22837,7.88316
44.77299,0.60940,0.56143,-0.86438,-0.19070,0.30804,1.31441,0.00827,0.01955,1.79826,-0.01151,-0.05894,1.97273,0.52290,0.00240,-0.29349,-0.64210,-3.68174,751.37487,773.12475,0.53592,12.75268,0.64210,-0.34454,-7.89446,8.22837,7.88383
44.77399,0.60940,0.56143,-0.86438,-0.19070,0.30804,1.31441,0.00827,0.01955,1.79826,-0.01151,-0.05894,1.97273,0.52290,0.00240,-0.29349,-0.64210,-3.68174,751.37487,773.12475,0.53592,12.75302,0.64210,-0.34387,-7.89446,8.22837,7.88449
44.77500,0.60940,0.56143,-0.86438,-0.18742,0.31655,1.32250,0.00827,0.01955,1.79826,-0.01151,-0.05894,1.97273,0.52290,0.00240,-0.29349,-0.64210,-3.68247,751.44860,773.12475,0.53596,12.75336,0.64210,-0.34299,-7.78856,8.22837,7.88537
44.77600,0.60940,0.56143,-0.86438,-0.18742,0.31655,1.32250,0.00827,0.01955,1.79826,-0.01151,-0.05894,1.97273,0.52290,0.00240,-0.29349,-0.64210,-3.68247,751.44860,778.48907,0.53596,12.75371,0.64180,-0.34211,-7.78856,8.22837,7.88625
44.77700,0.67960,0.62282,-0.92734,-0.18927,0.31691,1.33002,0.01088,0.02229,1.79826,-0.01436,-0.05555,1.98579,0.52245,0.01468,-0.29349,-0.64180,-3.70152,753.38989,773.12475,0.53769,12.75406,0.64180,-0.34109,-7.75594,8.26726,7.92617
44.77799,0.67960,0.62282,-0.92734,-0.18927,0.31691,1.33002,0.01088,0.02229,1.79826,-0.01436,-0.05555,1.98579,0.52245,0.01468,-0.29349,-0.64180,-3.70152,753.38989,771.13220,0.53769,12.75442,0.64180,-0.34006,-7.75594,8.26726,7.92719
44.77899,0.67960,0.62282,-0.92734,-0.18395,0.30981,1.33217,0.01088,0.02229,1.79826,-0.01436,-0.05555,1.98579,0.52245,0.01468,-0.29349,-0.64180,-3.70242,753.48187,771.13220,0.53774,12.75478,0.64180,-0.33915,-7.81112,8.26726,7.92810
44.77999,0.67960,0.62282,-0.92734,-0.18395,0.30981,1.33217,0.01088,0.02229,1.79826,-0.01436,-0.05555,1.98579,0.52245,0.01468,-0.29349,-0.64180,-3.70242,753.48187,771.13220,0.53774,12.75515,0.64180,-0.33824,-7.81112,8.26726,7.92902
44.78099,0.67960,0.62282,-0.92734,-0.17167,0.30735,1.33298,0.01088,0.02229,1.79826,-0.01436,-0.05555,1.98579,0.52245,0.01468,-0.29349,-0.64180,-3.70331,753.57214,773.12475,0.53779,12.75553,0.64180,-0.33725,-7.77316,8.26726,7.93000
44.78200,0.67960,0.62282,-0.92734,-0.17167,0.30735,1.33298,0.01088,0.02229,1.79826,-0.01436,-0.05555,1.98579,0.52245,0.01468,-0.29349,-0.64180,-3.70331,753.57214,773.12475,0.53779,12.75592,0.64180,-0.33626,-7.77316,8.26726,7.93099
44.78300,0.67960,0.62282,-0.92734,-0.16564,0.31049,1.33741,0.01088,0.02229,1.79826,-0.01436,-0.05555,1.98579,0.52245,0.01468,-0.29349,-0.64180,-3.70435,753.67761,773.12475,0.53785,12.75631,0.64180,-0.33503,-7.65169,8.26726,7.93222
44.78400,0.67960,0.62282,-0.92734,-0.16564,0.31049,1.33741,0.01088,0.02229,1.79826,-0.01436,-0.05555,1.98579,0.52245,0.01468,-0.29349,-0.64180,-3.70435,753.67761,769.14984,0.53785,12.75671,0.64180,-0.33380,-7.65169,8.26726,7.93345
44.78499,0.67960,0.62282,-0.92734,-0.16707,0.30941,1.34025,0.01088,0.02229,1.79826,-0.01436,-0.05555,1.98579,0.52245,0.01468,-0.29349,-0.64180,-3.70549,753.79370,768.49133,0.53793,12.75711,0.64180,-0.33259,-7.66096,8.26726,7.93467
44.78599,0.67960,0.62282,-0.92734,-0.16707,0.30941,1.34025,0.01088,0.02229,1.79826,-0.01436,-0.05555,1.98579,0.52245,0.01468,-0.29349,-0.64180,-3.70549,753.79370,768.49133,0.53793,12.75752,0.64130,-0.33138,-7.66101,8.26726,7.93588
44.78699,0.75742,0.59825,-0.99234,-0.16293,0.30461,1.33449,0.01522,0.02264,1.79826,-0.01696,-0.05203,1.99901,0.52170,0.02789,-0.29349,-0.64130,-3.72633,755.91101,768.49133,0.53980,12.75794,0.64130,-0.33037,-7.80597,8.30968,7.97930
44.78799,0.75742,0.59825,-0.99234,-0.16293,0.30461,1.33449,0.01522,0.02264,1.79826,-0.01696,-0.05203,1.99901,0.52170,0.02789,-0.29349,-0.64130,-3.72633,755.91101,767.83392,0.53980,12.75836,0.64130,-0.32936,-7.80597,8.30968,7.98031
44.78900,0.75742,0.59825,-0.99234,-0.15143,0.30662,1.32439,0.01522,0.02264,1.79826,-0.01696,-0.05203,1.99901,0.52170,0.02789,-0.29349,-0.64130,-3.72723,756.00195,767.83392,0.53985,12.75879,0.64130,-0.32845,-7.85331,8.30968,7.98122
44.79000,0.75742,0.59825,-0.99234,-0.15143,0.30662,1.32439,0.01522,0.02264,1.79826,-0.01696,-0.05203,1.99901,0.52170,0.02789,-0.29349,-0.64130,-3.72723,756.00195,769.80950,0.53985,12.75923,0.64130,-0.32753,-7.85331,8.30968,7.98214
44.79100,0.75742,0.59825,-0.99234,-0.14627,0.31481,1.31838,0.01522,0.02264,1.79826,-0.01696,-0.05203,1.99901,0.52170,0.02789,-0.29349,-0.64130,-3.72818,756.09869,769.80950,0.53990,12.75967,0.64130,-0.32640,-7.74439,8.30968,7.98327
44.79199,0.75742,0.59825,-0.99234,-0.14627,0.31481,1.31838,0.01522,0.02264,1.79826,-0.01696,-0.05203,1.99901,0.52170,0.02789,-0.29349,-0.64130,-3.72818,756.09869,767.17767,0.53990,12.76011,0.64130,-0.32527,-7.74439,8.30968,7.98440
44.79299,0.75742,0.59825,-0.99234,-0.15084,0.31693,1.31495,0.01522,0.02264,1.79826,-0.01696,-0.05203,1.99901,0.52170,0.02789,-0.29349,-0.64130,-3.72930,756.21240,769.80950,0.53997,12.76057,0.64130,-0.32400,-7.67478,8.30968,7.98567
44.79399,0.75742,0.59825,-0.99234,-0.15084,0.31693,1.31495,0.01522,0.02264,1.79826,-0.01696,-0.05203,1.99901,0.52170,0.02789,-0.29349,-0.64130,-3.72930,756.21240,769.80950,0.53997,12.76103,0.64130,-0.32273,-7.67478,8.30968,7.98694
44.79499,0.75742,0.59825,-0.99234,-0.15166,0.31098,1.30744,0.01522,0.02264,1.79826,-0.01696,-0.05203,1.99901,0.52170,0.02789,-0.29349,-0.64130,-3.73046,756.32910,769.80950,0.54003,12.76151,0.64130,-0.32154,-7.71171,8.30968,7.98813
44.79600,0.75742,0.59825,-0.99234,-0.15166,0.31098,1.30744,0.01522,0.02264,1.79826,-0.01696,-0.05203,1.99901,0.52170,0.02789,-0.29349,-0.64130,-3.73046,756.32910,769.80950,0.54003,12.76198,0.64130,-0.32034,-7.71171,8.30968,7.98933
44.79700,0.67201,0.52476,-1.05717,-0.14326,0.30798,1.29709,0.01229,0.02007,1.79826,-0.01928,-0.04846,2.01194,0.52170,0.02789,-0.29349,-0.64130,-3.73122,756.40698,771.13220,0.54006,12.76247,0.64130,-0.31910,-7.68897,8.30889,7.98978
44.79800,0.67201,0.52476,-1.05717,-0.14326,0.30798,1.29709,0.01229,0.02007,1.79826,-0.01928,-0.04846,2.01194,0.52170,0.02789,-0.29349,-0.64130,-3.73122,756.40698,771.13220,0.54006,12.76296,0.64130,-0.31786,-7.68897,8.30889,7.99102
44.79899,0.67201,0.52476,-1.05717,-0.13686,0.31116,1.28893,0.01229,0.02007,1.79826,-0.01928,-0.04846,2.01194,0.52170,0.02789,-0.29349,-0.64130,-3.73248,756.53472,771.13220,0.54013,12.76346,0.64130,-0.31640,-7.57960,8.30889,7.99248
44.79999,0.67201,0.52476,-1.05717,-0.13686,0.31116,1.28893,0.01229,0.02007,1.79826,-0.01928,-0.04846,2.01194,0.52170,0.02789,-0.29349,-0.64130,-3.73248,756.53472,771.13220,0.54013,12.76397,0.64130,-0.31495,-7.57960,8.30889,7.99394
44.80099,0.67201,0.52476,-1.05717,-0.13763,0.31188,1.27983,0.01229,0.02007,1.79826,-0.01928,-0.04846,2.01194,0.52170,0.02789,-0.29349,-0.64130,-3.73385,756.67291,771.13220,0.54022,12.76449,0.64130,-0.31348,-7.57809,8.30889,7.99540
44.80199,0.67201,0.52476,-1.05717,-0.13763,0.31188,1.27983,0.01229,0.02007,1.79826,-0.01928,-0.04846,2.01194,0.52170,0.02789,-0.29349,-0.64130,-3.73385,756.67291,771.13220,0.54022,12.76501,0.64130,-0.31202,-7.57809,8.30889,7.99686
44.80300,0.67201,0.52476,-1.05717,-0.13574,0.30891,1.26354,0.01229,0.02007,1.79826,-0.01928,-0.04846,2.01194,0.52170,0.02789,-0.29349,-0.64130,-3.73509,756.79833,771.13220,0.54028,12.76554,0.64130,-0.31083,-7.71452,8.30889,7.99805
44.80400,0.67201,0.52476,-1.05717,-0.13574,0.30891,1.26354,0.01229,0.02007,1.79826,-0.01928,-0.04846,2.01194,0.52170,0.02789,-0.29349,-0.64130,-3.73509,756.79833,771.79522,0.54028,12.76607,0.64130,-0.30964,-7.71452,8.30889,7.99924
44.80500,0.67201,0.52476,-1.05717,-0.12774,0.31207,1.24342,0.01229,0.02007,1.79826,-0.01928,-0.04846,2.01194,0.52170,0.02789,-0.29349,-0.64130,-3.73614,756.90563,771.13220,0.54034,12.76662,0.64130,-0.30857,-7.76926,8.30889,8.00032
44.80599,0.67201,0.52476,-1.05717,-0.12774,0.31207,1.24342,0.01229,0.02007,1.79826,-0.01928,-0.04846,2.01194,0.52170,0.02789,-0.29349,-0.64130,-3.73614,756.90563,771.79522,0.54034,12.76718,0.64079,-0.30749,-7.76926,8.30889,8.00139
44.80699,0.89856,0.56578,-1.11726,-0.12509,0.32172,1.22747,0.02289,0.02210,1.79826,-0.02139,-0.04484,2.02432,0.52094,0.04208,-0.29349,-0.64079,-3.75912,759.22973,771.79522,0.54239,12.76774,0.64079,-0.30610,-7.66397,8.35563,8.04952
44.80799,0.89856,0.56578,-1.11726,-0.12509,0.32172,1.22747,0.02289,0.02210,1.79826,-0.02139,-0.04484,2.02432,0.52094,0.04208,-0.29349,-0.64079,-3.75912,759.22973,771.79522,0.54239,12.76831,0.64079,-0.30472,-7.66397,8.35563,8.05090
44.80899,0.89856,0.56578,-1.11726,-0.13193,0.32507,1.21421,0.02289,0.02210,1.79826,-0.02139,-0.04484,2.02432,0.52094,0.04208,-0.29349,-0.64079,-3.76048,759.36676,775.79766,0.54246,12.76889,0.64079,-0.30320,-7.59386,8.35563,8.05243
44.81000,0.89856,0.56578,-1.11726,-0.13193,0.32507,1.21421,0.02289,0.02210,1.79826,-0.02139,-0.04484,2.02432,0.52094,0.04208,-0.29349,-0.64079,-3.76048,759.36676,775.79766,0.54246,12.76948,0.64079,-0.30167,-7.59386,8.35563,8.05395
44.81100,0.89856,0.56578,-1.11726,-0.13540,0.31861,1.19597,0.02289,0.02210,1.79826,-0.02139,-0.04484,2.02432,0.52094,0.04208,-0.29349,-0.64079,-3.76185,759.50537,775.79766,0.54254,12.77008,0.64079,-0.30026,-7.64737,8.35563,8.05537
44.81200,0.89856,0.56578,-1.11726,-0.13540,0.31861,1.19597,0.02289,0.02210,1.79826,-0.02139,-0.04484,2.02432,0.52094,0.04208,-0.29349,-0.64079,-3.76185,759.50537,775.79766,0.54254,12.77068,0.64079,-0.29884,-7.64737,8.35563,8.05678
44.81299,0.89856,0.56578,-1.11726,-0.12862,0.31456,1.17312,0.02289,0.02210,1.79826,-0.02139,-0.04484,2.02432,0.52094,0.04208,-0.29349,-0.64079,-3.76316,759.63714,775.79766,0.54261,12.77129,0.64079,-0.29746,-7.66587,8.35563,8.05816
44.81399,0.89856,0.56578,-1.11726,-0.12862,0.31456,1.17312,0.02289,0.02210,1.79826,-0.02139,-0.04484,2.02432,0.52094,0.04208,-0.29349,-0.64079,-3.76316,759.63714,772.45947,0.54261,12.77191,0.64079,-0.29608,-7.66587,8.35563,8.05954
44.81499,0.89856,0.56578,-1.11726,-0.12326,0.31894,1.15222,0.02289,0.02210,1.79826,-0.02139,-0.04484,2.02432,0.52094,0.04208,-0.29349,-0.64079,-3.76451,759.77380,771.13220,0.54268,12.77254,0.64079,-0.29456,-7.59648,8.35563,8.06106
44.81600,0.89856,0.56578,-1.11726,-0.12326,0.31894,1.15222,0.02289,0.02210,1.79826,-0.02139,-0.04484,2.02432,0.52094,0.04208,-0.29349,-0.64079,-3.76451,759.77380,771.13220,0.54268,12.77317,0.64079,-0.29304,-7.59648,8.35563,8.06258
44.81700,0.72152,0.50235,-1.17511,-0.12746,0.32238,1.13209,0.01742,0.02026,1.79826,-0.02337,-0.04111,2.03577,0.52094,0.04208,-0.29349,-0.64079,-3.76535,759.85803,772.45947,0.54270,12.77381,0.64079,-0.29152,-7.59488,8.35438,8.06285
44.81800,0.72152,0.50235,-1.17511,-0.12746,0.32238,1.13209,0.01742,0.02026,1.79826,-0.02337,-0.04111,2.03577,0.52094,0.04208,-0.29349,-0.64079,-3.76535,759.85803,772.45947,0.54270,12.77446,0.64079,-0.29001,-7.59488,8.35438,8.06437
44.81900,0.72152,0.50235,-1.17511,-0.13107,0.31948,1.10538,0.01742,0.02026,1.79826,-0.02337,-0.04111,2.03577,0.52094,0.04208,-0.29349,-0.64079,-3.76665,759.98919,772.45947,0.54276,12.77512,0.64079,-0.28874,-7.72203,8.35438,8.06563
44.81999,0.72152,0.50235,-1.17511,-0.13107,0.31948,1.10538,0.01742,0.02026,1.79826,-0.02337,-0.04111,2.03577,0.52094,0.04208,-0.29349,-0.64079,-3.76665,759.98919,768.49133,0.54276,12.77578,0.64079,-0.28748,-7.72203,8.35438,8.06690
44.82099,0.72152,0.50235,-1.17511,-0.12613,0.31864,1.07313,0.01742,0.02026,1.79826,-0.02337,-0.04111,2.03577,0.52094,0.04208,-0.29349,-0.64079,-3.76773,760.09838,772.45947,0.54280,12.77646,0.64079,-0.28642,-7.82802,8.35438,8.06795
44.82199,0.72152,0.50235,-1.17511,-0.12613,0.31864,1.07313,0.01742,0.02026,1.79826,-0.02337,-0.04111,2.03577,0.52094,0.04208,-0.29349,-0.64079,-3.76773,760.09838,772.45947,0.54280,12.77714,0.64079,-0.28537,-7.82802,8.35438,8.06900
44.82300,0.72152,0.50235,-1.17511,-0.12231,0.32415,1.04428,0.01742,0.02026,1.79826,-0.02337,-0.04111,2.03577,0.52094,0.04208,-0.29349,-0.64079,-3.76872,760.19805,772.45947,0.54283,12.77782,0.64079,-0.28431,-7.82257,8.35438,8.07007
44.82400,0.72152,0.50235,-1.17511,-0.12231,0.32415,1.04428,0.01742,0.02026,1.79826,-0.02337,-0.04111,2.03577,0.52094,0.04208,-0.29349,-0.64079,-3.76872,760.19805,772.45947,0.54283,12.77851,0.64079,-0.28324,-7.82257,8.35438,8.07113
44.82500,0.72152,0.50235,-1.17511,-0.12744,0.32662,1.02045,0.01742,0.02026,1.79826,-0.02337,-0.04111,2.03577,0.52094,0.04208,-0.29349,-0.64079,-3.76971,760.29754,772.45947,0.54286,12.77921,0.64079,-0.28219,-7.82976,8.35438,8.07218
44.82600,0.72152,0.50235,-1.17511,-0.12744,0.32662,1.02045,0.01742,0.02026,1.79826,-0.02337,-0.04111,2.03577,0.52094,0.04208,-0.29349,-0.64079,-3.76971,760.29754,783.24420,0.54286,12.77992,0.63969,-0.28115,-7.82974,8.35438,8.07323
44.82699,0.63045,0.50745,-1.22513,-0.13139,0.32107,0.99463,0.01100,0.02085,1.79826,-0.02529,-0.03730,2.04595,0.51929,0.05984,-0.29349,-0.63969,-3.79754,763.09881,783.24420,0.54533,12.78063,0.63969,-0.28019,-7.93620,8.41197,8.13177
44.82799,0.63045,0.50745,-1.22513,-0.13139,0.32107,0.99463,0.01100,0.02085,1.79826,-0.02529,-0.03730,2.04595,0.51929,0.05984,-0.29349,-0.63969,-3.79754,763.09881,790.83514,0.54533,12.78135,0.63969,-0.27924,-7.93620,8.41197,8.13272
44.82899,0.63045,0.50745,-1.22513,-0.12510,0.31720,0.96535,0.01100,0.02085,1.79826,-0.02529,-0.03730,2.04595,0.51929,0.05984,-0.29349,-0.63969,-3.79834,763.17980,783.24420,0.54534,12.78207,0.63969,-0.27847,-8.02429,8.41197,8.13350
44.83000,0.63045,0.50745,-1.22513,-0.12510,0.31720,0.96535,0.01100,0.02085,1.79826,-0.02529,-0.03730,2.04595,0.51929,0.05984,-0.29349,-0.63969,-3.79834,763.17980,783.24420,0.54534,12.78280,0.63969,-0.27769,-8.02429,8.41197,8.13428
44.83100,0.63045,0.50745,-1.22513,-0.11778,0.32139,0.93861,0.01100,0.02085,1.79826,-0.02529,-0.03730,2.04595,0.51929,0.05984,-0.29349,-0.63969,-3.79907,763.25341,783.24420,0.54535,12.78354,0.63969,-0.27690,-8.01575,8.41197,8.13507
44.83200,0.63045,0.50745,-1.22513,-0.11778,0.32139,0.93861,0.01100,0.02085,1.79826,-0.02529,-0.03730,2.04595,0.51929,0.05984,-0.29349,-0.63969,-3.79907,763.25341,783.24420,0.54535,12.78428,0.63969,-0.27611,-8.01575,8.41197,8.13586
44.83300,0.63045,0.50745,-1.22513,-0.11917,0.32500,0.91468,0.01100,0.02085,1.79826,-0.02529,-0.03730,2.04595,0.51929,0.05984,-0.29349,-0.63969,-3.79979,763.32556,777.81445,0.54535,12.78503,0.63969,-0.27536,-8.03898,8.41197,8.13661
44.83399,0.63045,0.50745,-1.22513,-0.11917,0.32500,0.91468,0.01100,0.02085,1.79826,-0.02529,-0.03730,2.04595,0.51929,0.05984,-0.29349,-0.63969,-3.79979,763.32556,777.81445,0.54535,12.78579,0.63969,-0.27461,-8.03898,8.41197,8.13735
44.83499,0.63045,0.50745,-1.22513,-0.12136,0.32147,0.88653,0.01100,0.02085,1.79826,-0.02529,-0.03730,2.04595,0.51929,0.05984,-0.29349,-0.63969,-3.80035,763.38165,777.81445,0.54534,12.78655,0.63969,-0.27417,-8.18731,8.41197,8.13780
44.83599,0.63045,0.50745,-1.22513,-0.12136,0.32147,0.88653,0.01100,0.02085,1.79826,-0.02529,-0.03730,2.04595,0.51929,0.05984,-0.29349,-0.63969,-3.80035,763.38165,777.81445,0.54534,12.78732,0.63800,-0.27372,-8.18731,8.41197,8.13825
44.83700,0.87344,0.36776,-1.27215,-0.11519,0.31874,0.85354,0.01979,0.01453,1.79826,-0.02706,-0.03354,2.05474,0.51674,0.08886,-0.29349,-0.63800,-3.84505,767.85827,777.81445,0.54931,12.78809,0.63800,-0.27337,-8.33408,8.50690,8.23353
44.83800,0.87344,0.36776,-1.27215,-0.11519,0.31874,0.85354,0.01979,0.01453,1.79826,-0.02706,-0.03354,2.05474,0.51674,0.08886,-0.29349,-0.63800,-3.84505,767.85827,777.81445,0.54931,12.78887,0.63800,-0.27302,-8.33408,8.50690,8.23387
44.83900,0.87344,0.36776,-1.27215,-0.10824,0.32317,0.82339,0.01979,0.01453,1.79826,-0.02706,-0.03354,2.05474,0.51674,0.08886,-0.29349,-0.63800,-3.84534,767.88726,772.45947,0.54927,12.78966,0.63800,-0.27275,-8.36880,8.50690,8.23415
44.84000,0.87344,0.36776,-1.27215,-0.10824,0.32317,0.82339,0.01979,0.01453,1.79826,-0.02706,-0.03354,2.05474,0.51674,0.08886,-0.29349,-0.63800,-3.84534,767.88726,772.45947,0.54927,12.79045,0.63800,-0.27247,-8.36880,8.50690,8.23442
44.84099,0.87344,0.36776,-1.27215,-0.10906,0.32664,0.79786,0.01979,0.01453,1.79826,-0.02706,-0.03354,2.05474,0.51674,0.08886,-0.29349,-0.63800,-3.84557,767.91003,772.45947,0.54922,12.79124,0.63800,-0.27226,-8.40096,8.50690,8.23464
44.84199,0.87344,0.36776,-1.27215,-0.10906,0.32664,0.79786,0.01979,0.01453,1.79826,-0.02706,-0.03354,2.05474,0.51674,0.08886,-0.29349,-0.63800,-3.84557,767.91003,772.45947,0.54922,12.79204,0.63800,-0.27205,-8.40096,8.50690,8.23485
44.84299,0.87344,0.36776,-1.27215,-0.10913,0.32227,0.76983,0.01979,0.01453,1.79826,-0.02706,-0.03354,2.05474,0.51674,0.08886,-0.29349,-0.63800,-3.84565,767.91754,769.80950,0.54916,12.79285,0.63800,-0.27210,-8.53256,8.50690,8.23480
44.84400,0.87344,0.36776,-1.27215,-0.10913,0.32227,0.76983,0.01979,0.01453,1.79826,-0.02706,-0.03354,2.05474,0.51674,0.08886,-0.29349,-0.63800,-3.84565,767.91754,771.79522,0.54916,12.79366,0.63800,-0.27215,-8.53256,8.50690,8.23474
44.84500,0.87344,0.36776,-1.27215,-0.09899,0.31814,0.73721,0.01979,0.01453,1.79826,-0.02706,-0.03354,2.05474,0.51674,0.08886,-0.29349,-0.63800,-3.84549,767.90185,771.79522,0.54907,12.79447,0.63800,-0.27244,-8.64925,8.50690,8.23446
44.84600,0.87344,0.36776,-1.27215,-0.09899,0.31814,0.73721,0.01979,0.01453,1.79826,-0.02706,-0.03354,2.05474,0.51674,0.08886,-0.29349,-0.63800,-3.84549,767.90185,771.79522,0.54907,12.79529,0.63619,-0.27272,-8.64935,8.50690,8.23417
44.84700,0.96172,0.45189,-1.30601,-0.08744,0.32206,0.70670,0.02653,0.01711,1.79826,-0.02857,-0.02975,2.06206,0.51405,0.10641,-0.29349,-0.63619,-3.87446,770.78869,783.24420,0.55160,12.79612,0.63619,-0.27286,-8.64035,8.56936,8.29649
44.84799,0.96172,0.45189,-1.30601,-0.08744,0.32206,0.70670,0.02653,0.01711,1.79826,-0.02857,-0.02975,2.06206,0.51405,0.10641,-0.29349,-0.63619,-3.87446,770.78869,772.45947,0.55160,12.79694,0.63619,-0.27300,-8.64035,8.56936,8.29635
44.84899,0.96172,0.45189,-1.30601,-0.08593,0.32656,0.68034,0.02653,0.01711,1.79826,-0.02857,-0.02975,2.06206,0.51405,0.10641,-0.29349,-0.63619,-3.87435,770.77758,772.45947,0.55152,12.79777,0.63619,-0.27310,-8.61759,8.56936,8.29625
44.84999,0.96172,0.45189,-1.30601,-0.08593,0.32656,0.68034,0.02653,0.01711,1.79826,-0.02857,-0.02975,2.06206,0.51405,0.10641,-0.29349,-0.63619,-3.87435,770.77758,775.79766,0.55152,12.79860,0.63619,-0.27320,-8.61759,8.56936,8.29615
44.85100,0.96172,0.45189,-1.30601,-0.08761,0.32341,0.65161,0.02653,0.01711,1.79826,-0.02857,-0.02975,2.06206,0.51405,0.10641,-0.29349,-0.63619,-3.87417,770.75988,775.79766,0.55143,12.79944,0.63619,-0.27348,-8.71190,8.56936,8.29587
44.85200,0.96172,0.45189,-1.30601,-0.08761,0.32341,0.65161,0.02653,0.01711,1.79826,-0.02857,-0.02975,2.06206,0.51405,0.10641,-0.29349,-0.63619,-3.87417,770.75988,775.79766,0.55143,12.80027,0.63619,-0.27377,-8.71190,8.56936,8.29558
44.85300,0.96172,0.45189,-1.30601,-0.08106,0.31956,0.61858,0.02653,0.01711,1.79826,-0.02857,-0.02975,2.06206,0.51405,0.10641,-0.29349,-0.63619,-3.87379,770.72229,777.81445,0.55133,12.80111,0.63619,-0.27429,-8.83172,8.56936,8.29506
44.85400,0.96172,0.45189,-1.30601,-0.08106,0.31956,0.61858,0.02653,0.01711,1.79826,-0.02857,-0.02975,2.06206,0.51405,0.10641,-0.29349,-0.63619,-3.87379,770.72229,775.79766,0.55133,12.80195,0.63619,-0.27482,-8.83172,8.56936,8.29453
44.85499,0.96172,0.45189,-1.30601,-0.07199,0.32323,0.58817,0.02653,0.01711,1.79826,-0.02857,-0.02975,2.06206,0.51405,0.10641,-0.29349,-0.63619,-3.87329,770.67218,777.81445,0.55121,12.80280,0.63619,-0.27537,-8.84609,8.56936,8.29398
44.85599,0.96172,0.45189,-1.30601,-0.07199,0.32323,0.58817,0.02653,0.01711,1.79826,-0.02857,-0.02975,2.06206,0.51405,0.10641,-0.29349,-0.63619,-3.87329,770.67218,780.51989,0.55121,12.80364,0.63619,-0.27592,-8.84609,8.56936,8.29343
44.85699,0.79198,0.43490,-1.33541,-0.07136,0.32740,0.56268,0.02099,0.01742,1.79826,-0.02971,-0.02598,2.06791,0.51405,0.10641,-0.29349,-0.63619,-3.87226,770.57037,780.51989,0.55105,12.80449,0.63619,-0.27648,-8.84647,8.56828,8.29179
44.85800,0.79198,0.43490,-1.33541,-0.07136,0.32740,0.56268,0.02099,0.01742,1.79826,-0.02971,-0.02598,2.06791,0.51405,0.10641,-0.29349,-0.63619,-3.87226,770.57037,777.81445,0.55105,12.80534,0.63619,-0.27704,-8.84647,8.56828,8.29123
44.85900,0.79198,0.43490,-1.33541,-0.07357,0.32332,0.53489,0.02099,0.01742,1.79826,-0.02971,-0.02598,2.06791,0.51405,0.10641,-0.29349,-0.63619,-3.87163,770.50762,777.81445,0.55092,12.80619,0.63619,-0.27783,-8.96496,8.56828,8.29044
44.86000,0.79198,0.43490,-1.33541,-0.07357,0.32332,0.53489,0.02099,0.01742,1.79826,-0.02971,-0.02598,2.06791,0.51405,0.10641,-0.29349,-0.63619,-3.87163,770.50762,777.81445,0.55092,12.80705,0.63619,-0.27862,-8.96496,8.56828,8.28965
44.86100,0.79198,0.43490,-1.33541,-0.06743,0.31787,0.50185,0.02099,0.01742,1.79826,-0.02971,-0.02598,2.06791,0.51405,0.10641,-0.29349,-0.63619,-3.87077,770.42150,780.51989,0.55077,12.80790,0.63619,-0.27968,-9.09768,8.56828,8.28859
44.86199,0.79198,0.43490,-1.33541,-0.06743,0.31787,0.50185,0.02099,0.01742,1.79826,-0.02971,-0.02598,2.06791,0.51405,0.10641,-0.29349,-0.63619,-3.87077,770.42150,780.51989,0.55077,12.80876,0.63619,-0.28074,-9.09768,8.56828,8.28753
44.86299,0.79198,0.43490,-1.33541,-0.05789,0.32066,0.47072,0.02099,0.01742,1.79826,-0.02971,-0.02598,2.06791,0.51405,0.10641,-0.29349,-0.63619,-3.86979,770.32421,780.51989,0.55060,12.80962,0.63619,-0.28178,-9.08550,8.56828,8.28649
44.86399,0.79198,0.43490,-1.33541,-0.05789,0.32066,0.47072,0.02099,0.01742,1.79826,-0.02971,-0.02598,2.06791,0.51405,0.10641,-0.29349,-0.63619,-3.86979,770.32421,776.46875,0.55060,12.81049,0.63619,-0.28281,-9.08550,8.56828,8.28546
44.86500,0.79198,0.43490,-1.33541,-0.05597,0.32562,0.44525,0.02099,0.01742,1.79826,-0.02971,-0.02598,2.06791,0.51405,0.10641,-0.29349,-0.63619,-3.86889,770.23468,776.46875,0.55045,12.81135,0.63619,-0.28370,-9.01475,8.56828,8.28457
44.86600,0.79198,0.43490,-1.33541,-0.05597,0.32562,0.44525,0.02099,0.01742,1.79826,-0.02971,-0.02598,2.06791,0.51405,0.10641,-0.29349,-0.63619,-3.86889,770.23468,776.46875,0.55045,12.81222,0.63359,-0.28460,-9.01474,8.56828,8.28367
44.86700,1.13580,0.28749,-1.36169,-0.05671,0.32288,0.41900,0.03734,0.01093,1.79826,-0.03061,-0.02221,2.07230,0.51014,0.14031,-0.29349,-0.63359,-3.92267,775.56951,776.46875,0.55518,12.81308,0.63359,-0.28532,-9.04574,8.68505,8.39973
44.86800,1.13580,0.28749,-1.36169,-0.05671,0.32288,0.41900,0.03734,0.01093,1.79826,-0.03061,-0.02221,2.07230,0.51014,0.14031,-0.29349,-0.63359,-3.92267,775.56951,773.12475,0.55518,12.81395,0.63359,-0.28604,-9.04574,8.68505,8.39901
44.86899,1.13580,0.28749,-1.36169,-0.04884,0.31787,0.38792,0.03734,0.01093,1.79826,-0.03061,-0.02221,2.07230,0.51014,0.14031,-0.29349,-0.63359,-3.92194,775.49780,773.12475,0.55504,12.81482,0.63359,-0.28687,-9.10163,8.68505,8.39817
44.86999,1.13580,0.28749,-1.36169,-0.04884,0.31787,0.38792,0.03734,0.01093,1.79826,-0.03061,-0.02221,2.07230,0.51014,0.14031,-0.29349,-0.63359,-3.92194,775.49780,776.46875,0.55504,12.81570,0.63359,-0.28771,-9.10163,8.68505,8.39734
44.87099,1.13580,0.28749,-1.36169,-0.03731,0.32054,0.35784,0.03734,0.01093,1.79826,-0.03061,-0.02221,2.07230,0.51014,0.14031,-0.29349,-0.63359,-3.92123,775.42669,776.46875,0.55490,12.81657,0.63359,-0.28841,-9.03780,8.68505,8.39663
44.87200,1.13580,0.28749,-1.36169,-0.03731,0.32054,0.35784,0.03734,0.01093,1.79826,-0.03061,-0.02221,2.07230,0.51014,0.14031,-0.29349,-0.63359,-3.92123,775.42669,776.46875,0.55490,12.81745,0.63359,-0.28912,-9.03780,8.68505,8.39593
44.87300,1.13580,0.28749,-1.36169,-0.03429,0.32578,0.33271,0.03734,0.01093,1.79826,-0.03061,-0.02221,2.07230,0.51014,0.14031,-0.29349,-0.63359,-3.92065,775.36987,772.45947,0.55477,12.81833,0.63359,-0.28964,-8.94772,8.68505,8.39540
44.87400,1.13580,0.28749,-1.36169,-0.03429,0.32578,0.33271,0.03734,0.01093,1.79826,-0.03061,-0.02221,2.07230,0.51014,0.14031,-0.29349,-0.63359,-3.92065,775.36987,772.45947,0.55477,12.81922,0.63359,-0.29017,-8.94772,8.68505,8.39488
44.87500,1.13580,0.28749,-1.36169,-0.03585,0.32351,0.30670,0.03734,0.01093,1.79826,-0.03061,-0.02221,2.07230,0.51014,0.14031,-0.29349,-0.63359,-3.92012,775.31762,772.45947,0.55465,12.82011,0.63359,-0.29077,-8.98832,8.68505,8.39427
44.87599,1.13580,0.28749,-1.36169,-0.03585,0.32351,0.30670,0.03734,0.01093,1.79826,-0.03061,-0.02221,2.07230,0.51014,0.14031,-0.29349,-0.63359,-3.92012,775.31762,772.45947,0.55465,12.82100,0.63359,-0.29138,-8.98832,8.68505,8.39367
44.87699,0.84403,0.37218,-1.37402,-0.03003,0.31847,0.27596,0.02847,0.01361,1.79826,-0.03123,-0.01850,2.07531,0.51014,0.14031,-0.29349,-0.63359,-3.91843,775.14996,772.45947,0.55442,12.82189,0.63359,-0.29215,-9.06953,8.68280,8.39064
44.87799,0.84403,0.37218,-1.37402,-0.03003,0.31847,0.27596,0.02847,0.01361,1.79826,-0.03123,-0.01850,2.07531,0.51014,0.14031,-0.29349,-0.63359,-3.91843,775.14996,772.45947,0.55442,12.82279,0.63359,-0.29293,-9.06953,8.68280,8.38987
44.87900,0.84403,0.37218,-1.37402,-0.02027,0.32088,0.24673,0.02847,0.01361,1.79826,-0.03123,-0.01850,2.07531,0.51014,0.14031,-0.29349,-0.63359,-3.91775,775.08319,782.56134,0.55428,12.82369,0.63359,-0.29360,-9.01853,8.68280,8.38920
44.88000,0.84403,0.37218,-1.37402,-0.02027,0.32088,0.24673,0.02847,0.01361,1.79826,-0.03123,-0.01850,2.07531,0.51014,0.14031,-0.29349,-0.63359,-3.91775,775.08319,782.56134,0.55428,12.82459,0.63359,-0.29427,-9.01853,8.68280,8.38852
44.88100,0.84403,0.37218,-1.37402,-0.01814,0.32630,0.22350,0.02847,0.01361,1.79826,-0.03123,-0.01850,2.07531,0.51014,0.14031,-0.29349,-0.63359,-3.91723,775.03204,779.84179,0.55416,12.82549,0.63359,-0.29471,-8.90048,8.68280,8.38809
44.88199,0.84403,0.37218,-1.37402,-0.01814,0.32630,0.22350,0.02847,0.01361,1.79826,-0.03123,-0.01850,2.07531,0.51014,0.14031,-0.29349,-0.63359,-3.91723,775.03204,779.84179,0.55416,12.82640,0.63359,-0.29514,-8.90048,8.68280,8.38765
44.88299,0.84403,0.37218,-1.37402,-0.02023,0.32433,0.20015,0.02847,0.01361,1.79826,-0.03123,-0.01850,2.07531,0.51014,0.14031,-0.29349,-0.63359,-3.91684,774.99298,779.84179,0.55404,12.82731,0.63359,-0.29555,-8.88822,8.68280,8.38724
44.88399,0.84403,0.37218,-1.37402,-0.02023,0.32433,0.20015,0.02847,0.01361,1.79826,-0.03123,-0.01850,2.07531,0.51014,0.14031,-0.29349,-0.63359,-3.91684,774.99298,775.12774,0.55404,12.82823,0.63359,-0.29596,-8.88822,8.68280,8.38683
44.88499,0.84403,0.37218,-1.37402,-0.01470,0.31885,0.17174,0.02847,0.01361,1.79826,-0.03123,-0.01850,2.07531,0.51014,0.14031,-0.29349,-0.63359,-3.91641,774.95062,775.12774,0.55393,12.82914,0.63359,-0.29647,-8.93539,8.68280,8.38633
44.88600,0.84403,0.37218,-1.37402,-0.01470,0.31885,0.17174,0.02847,0.01361,1.79826,-0.03123,-0.01850,2.07531,0.51014,0.14031,-0.29349,-0.63359,-3.91641,774.95062,775.12774,0.55393,12.83006,0.63190,-0.29697,-8.93538,8.68280,8.38582
44.88700,0.82872,0.36437,-1.38249,-0.00445,0.32019,0.14384,0.02567,0.01451,1.79826,-0.03157,-0.01479,2.07696,0.50760,0.15532,-0.29349,-0.63190,-3.94040,777.32025,775.12774,0.55598,12.83098,0.63190,-0.29726,-8.87933,8.73496,8.43769
44.88800,0.82872,0.36437,-1.38249,-0.00445,0.32019,0.14384,0.02567,0.01451,1.79826,-0.03157,-0.01479,2.07696,0.50760,0.15532,-0.29349,-0.63190,-3.94040,777.32025,779.84179,0.55598,12.83190,0.63190,-0.29755,-8.87933,8.73496,8.43740
44.88899,0.82872,0.36437,-1.38249,-0.00098,0.32469,0.12168,0.02567,0.01451,1.79826,-0.03157,-0.01479,2.07696,0.50760,0.15532,-0.29349,-0.63190,-3.94022,777.30291,779.84179,0.55588,12.83283,0.63190,-0.29764,-8.77898,8.73496,8.43731
44.88999,0.82872,0.36437,-1.38249,-0.00098,0.32469,0.12168,0.02567,0.01451,1.79826,-0.03157,-0.01479,2.07696,0.50760,0.15532,-0.29349,-0.63190,-3.94022,777.30291,775.12774,0.55588,12.83375,0.63190,-0.29773,-8.77898,8.73496,8.43723
44.89099,0.82872,0.36437,-1.38249,-0.00149,0.32198,0.10047,0.02567,0.01451,1.79826,-0.03157,-0.01479,2.07696,0.50760,0.15532,-0.29349,-0.63190,-3.94012,777.29229,775.12774,0.55579,12.83468,0.63190,-0.29787,-8.80603,8.73496,8.43708
44.89199,0.82872,0.36437,-1.38249,-0.00149,0.32198,0.10047,0.02567,0.01451,1.79826,-0.03157,-0.01479,2.07696,0.50760,0.15532,-0.29349,-0.63190,-3.94012,777.29229,775.12774,0.55579,12.83562,0.63190,-0.29801,-8.80603,8.73496,8.43694
44.89300,0.82872,0.36437,-1.38249,0.00530,0.31574,0.07541,0.02567,0.01451,1.79826,-0.03157,-0.01479,2.07696,0.50760,0.15532,-0.29349,-0.63190,-3.93990,777.27117,775.12774,0.55569,12.83655,0.63190,-0.29833,-8.89349,8.73496,8.43663
44.89400,0.82872,0.36437,-1.38249,0.00530,0.31574,0.07541,0.02567,0.01451,1.79826,-0.03157,-0.01479,2.07696,0.50760,0.15532,-0.29349,-0.63190,-3.93990,777.27117,797.86480,0.55569,12.83749,0.63190,-0.29864,-8.89349,8.73496,8.43631
44.89500,0.82872,0.36437,-1.38249,0.01645,0.31673,0.05127,0.02567,0.01451,1.79826,-0.03157,-0.01479,2.07696,0.50760,0.15532,-0.29349,-0.63190,-3.93965,777.24615,797.86480,0.55559,12.83842,0.63190,-0.29887,-8.84778,8.73496,8.43608
44.89599,0.82872,0.36437,-1.38249,0.01645,0.31673,0.05127,0.02567,0.01451,1.79826,-0.03157,-0.01479,2.07696,0.50760,0.15532,-0.29349,-0.63190,-3.93965,777.24615,797.86480,0.55559,12.83936,0.62890,-0.29910,-8.84778,8.73496,8.43586
44.89699,1.17980,0.25724,-1.38807,0.02040,0.32172,0.03236,0.04192,0.01049,1.79826,-0.03164,-0.01115,2.07739,0.50309,0.17373,-0.29349,-0.62890,-3.97381,780.60870,797.86480,0.55853,12.84031,0.62890,-0.29889,-8.70709,8.80813,8.50923
44.89799,1.17980,0.25724,-1.38807,0.02040,0.32172,0.03236,0.04192,0.01049,1.79826,-0.03164,-0.01115,2.07739,0.50309,0.17373,-0.29349,-0.62890,-3.97381,780.60870,786.67651,0.55853,12.84125,0.62890,-0.29869,-8.70709,8.80813,8.50944
44.89899,1.17980,0.25724,-1.38807,0.02000,0.31990,0.01276,0.04192,0.01049,1.79826,-0.03164,-0.01115,2.07739,0.50309,0.17373,-0.29349,-0.62890,-3.97404,780.63171,797.86480,0.55846,12.84220,0.62890,-0.29839,-8.65841,8.80813,8.50974
44.90000,1.17980,0.25724,-1.38807,0.02000,0.31990,0.01276,0.04192,0.01049,1.79826,-0.03164,-0.01115,2.07739,0.50309,0.17373,-0.29349,-0.62890,-3.97404,780.63171,786.67651,0.55846,12.84314,0.62890,-0.29809,-8.65841,8.80813,8.51004
44.90100,1.17980,0.25724,-1.38807,0.02710,0.31398,-0.01325,0.04192,0.01049,1.79826,-0.03164,-0.01115,2.07739,0.50309,0.17373,-0.29349,-0.62890,-3.97430,780.65710,786.67651,0.55840,12.84409,0.62890,-0.29784,-8.68096,8.80813,8.51029
44.90200,1.17980,0.25724,-1.38807,0.02710,0.31398,-0.01325,0.04192,0.01049,1.79826,-0.03164,-0.01115,2.07739,0.50309,0.17373,-0.29349,-0.62890,-3.97430,780.65710,785.29998,0.55840,12.84504,0.62890,-0.29758,-8.68096,8.80813,8.51054
44.90299,1.17980,0.25724,-1.38807,0.03883,0.31462,-0.04036,0.04192,0.01049,1.79826,-0.03164,-0.01115,2.07739,0.50309,0.17373,-0.29349,-0.62890,-3.97460,780.68676,785.29998,0.55835,12.84600,0.62890,-0.29719,-8.61234,8.80813,8.51094
44.90399,1.17980,0.25724,-1.38807,0.03883,0.31462,-0.04036,0.04192,0.01049,1.79826,-0.03164,-0.01115,2.07739,0.50309,0.17373,-0.29349,-0.62890,-3.97460,780.68676,785.29998,0.55835,12.84695,0.62890,-0.29680,-8.61234,8.80813,8.51133
44.90499,1.17980,0.25724,-1.38807,0.04276,0.31961,-0.06219,0.04192,0.01049,1.79826,-0.03164,-0.01115,2.07739,0.50309,0.17373,-0.29349,-0.62890,-3.97508,780.73327,785.29998,0.55831,12.84791,0.62890,-0.29618,-8.49657,8.80813,8.51195
44.90599,1.17980,0.25724,-1.38807,0.04276,0.31961,-0.06219,0.04192,0.01049,1.79826,-0.03164,-0.01115,2.07739,0.50309,0.17373,-0.29349,-0.62890,-3.97508,780.73327,785.29998,0.55831,12.84886,0.62890,-0.29555,-8.49654,8.80813,8.51257
44.90700,0.89305,0.30720,-1.38326,0.04122,0.31900,-0.08266,0.03327,0.01260,1.79826,-0.03142,-0.00756,2.07672,0.50309,0.17373,-0.29349,-0.62890,-3.97441,780.66760,786.67651,0.55817,12.84982,0.62890,-0.29496,-8.50779,8.80548,8.51052
44.90800,0.89305,0.30720,-1.38326,0.04122,0.31900,-0.08266,0.03327,0.01260,1.79826,-0.03142,-0.00756,2.07672,0.50309,0.17373,-0.29349,-0.62890,-3.97441,780.66760,786.67651,0.55817,12.85078,0.62890,-0.29436,-8.50779,8.80548,8.51111
44.90900,0.89305,0.30720,-1.38326,0.04698,0.31554,-0.10694,0.03327,0.01260,1.79826,-0.03142,-0.00756,2.07672,0.50309,0.17373,-0.29349,-0.62890,-3.97488,780.71386,788.05786,0.55812,12.85174,0.62890,-0.29395,-8.59872,8.80548,8.51153
44.90999,0.89305,0.30720,-1.38326,0.04698,0.31554,-0.10694,0.03327,0.01260,1.79826,-0.03142,-0.00756,2.07672,0.50309,0.17373,-0.29349,-0.62890,-3.97488,780.71386,788.05786,0.55812,12.85271,0.62890,-0.29354,-8.59872,8.80548,8.51194
44.91099,0.89305,0.30720,-1.38326,0.05876,0.31933,-0.13090,0.03327,0.01260,1.79826,-0.03142,-0.00756,2.07672,0.50309,0.17373,-0.29349,-0.62890,-3.97530,780.75469,788.05786,0.55808,12.85367,0.62890,-0.29306,-8.56753,8.80548,8.51242
44.91199,0.89305,0.30720,-1.38326,0.05876,0.31933,-0.13090,0.03327,0.01260,1.79826,-0.03142,-0.00756,2.07672,0.50309,0.17373,-0.29349,-0.62890,-3.97530,780.75469,788.05786,0.55808,12.85463,0.62890,-0.29259,-8.56753,8.80548,8.51289
44.91299,0.89305,0.30720,-1.38326,0.06448,0.32704,-0.15003,0.03327,0.01260,1.79826,-0.03142,-0.00756,2.07672,0.50309,0.17373,-0.29349,-0.62890,-3.97587,780.81085,788.05786,0.55804,12.85560,0.62890,-0.29184,-8.43141,8.80548,8.51364
44.91400,0.89305,0.30720,-1.38326,0.06448,0.32704,-0.15003,0.03327,0.01260,1.79826,-0.03142,-0.00756,2.07672,0.50309,0.17373,-0.29349,-0.62890,-3.97587,780.81085,790.13897,0.55804,12.85656,0.62890,-0.29109,-8.43141,8.80548,8.51439
44.91500,0.89305,0.30720,-1.38326,0.06523,0.32713,-0.16925,0.03327,0.01260,1.79826,-0.03142,-0.00756,2.07672,0.50309,0.17373,-0.29349,-0.62890,-3.97661,780.88348,792.93103,0.55802,12.85753,0.62890,-0.29025,-8.38753,8.80548,8.51523
44.91600,0.89305,0.30720,-1.38326,0.06523,0.32713,-0.16925,0.03327,0.01260,1.79826,-0.03142,-0.00756,2.07672,0.50309,0.17373,-0.29349,-0.62890,-3.97661,780.88348,790.13897,0.55802,12.85849,0.62550,-0.28942,-8.38753,8.80548,8.51606
44.91699,1.03439,0.17794,-1.37840,0.07246,0.32167,-0.19347,0.03893,0.00737,1.79826,-0.03094,-0.00397,2.07492,0.49800,0.19472,-0.29349,-0.62550,-4.01462,784.60662,790.13897,0.56128,12.85946,0.62550,-0.28851,-8.43187,8.88513,8.59662
44.91799,1.03439,0.17794,-1.37840,0.07246,0.32167,-0.19347,0.03893,0.00737,1.79826,-0.03094,-0.00397,2.07492,0.49800,0.19472,-0.29349,-0.62550,-4.01462,784.60662,779.84179,0.56128,12.86043,0.62550,-0.28760,-8.43187,8.88513,8.59752
44.91899,1.03439,0.17794,-1.37840,0.08457,0.32196,-0.21726,0.03893,0.00737,1.79826,-0.03094,-0.00397,2.07492,0.49800,0.19472,-0.29349,-0.62550,-4.01550,784.69262,779.84179,0.56127,12.86139,0.62550,-0.28663,-8.39608,8.88513,8.59850
44.91999,1.03439,0.17794,-1.37840,0.08457,0.32196,-0.21726,0.03893,0.00737,1.79826,-0.03094,-0.00397,2.07492,0.49800,0.19472,-0.29349,-0.62550,-4.01550,784.69262,779.84179,0.56127,12.86235,0.62550,-0.28565,-8.39608,8.88513,8.59948
44.92100,1.03439,0.17794,-1.37840,0.08971,0.32687,-0.23439,0.03893,0.00737,1.79826,-0.03094,-0.00397,2.07492,0.49800,0.19472,-0.29349,-0.62550,-4.01650,784.79028,779.84179,0.56128,12.86331,0.62550,-0.28448,-8.30356,8.88513,8.60064
44.92200,1.03439,0.17794,-1.37840,0.08971,0.32687,-0.23439,0.03893,0.00737,1.79826,-0.03094,-0.00397,2.07492,0.49800,0.19472,-0.29349,-0.62550,-4.01650,784.79028,779.84179,0.56128,12.86427,0.62550,-0.28332,-8.30356,8.88513,8.60181
44.92300,1.03439,0.17794,-1.37840,0.08966,0.32641,-0.24909,0.03893,0.00737,1.79826,-0.03094,-0.00397,2.07492,0.49800,0.19472,-0.29349,-0.62550,-4.01757,784.89520,775.79766,0.56129,12.86523,0.62550,-0.28219,-8.31721,8.88513,8.60294
44.92399,1.03439,0.17794,-1.37840,0.08966,0.32641,-0.24909,0.03893,0.00737,1.79826,-0.03094,-0.00397,2.07492,0.49800,0.19472,-0.29349,-0.62550,-4.01757,784.89520,779.84179,0.56129,12.86619,0.62550,-0.28105,-8.31721,8.88513,8.60408
44.92499,1.03439,0.17794,-1.37840,0.09724,0.32236,-0.26742,0.03893,0.00737,1.79826,-0.03094,-0.00397,2.07492,0.49800,0.19472,-0.29349,-0.62550,-4.01856,784.99133,779.84179,0.56129,12.86715,0.62550,-0.28008,-8.39900,8.88513,8.60505
44.92599,1.03439,0.17794,-1.37840,0.09724,0.32236,-0.26742,0.03893,0.00737,1.79826,-0.03094,-0.00397,2.07492,0.49800,0.19472,-0.29349,-0.62550,-4.01856,784.99133,779.84179,0.56129,12.86810,0.62160,-0.27911,-8.39901,8.88513,8.60602
44.92699,1.09569,0.13241,-1.36574,0.11171,0.32436,-0.28590,0.04406,0.00397,1.79826,-0.03011,-0.00038,2.07209,0.49215,0.22557,-0.29349,-0.62160,-4.07188,790.18255,786.67651,0.56586,12.86906,0.62160,-0.27784,-8.36495,8.99709,8.71924
44.92800,1.09569,0.13241,-1.36574,0.11171,0.32436,-0.28590,0.04406,0.00397,1.79826,-0.03011,-0.00038,2.07209,0.49215,0.22557,-0.29349,-0.62160,-4.07188,790.18255,786.67651,0.56586,12.87001,0.62160,-0.27658,-8.36495,8.99709,8.72050
44.92900,1.09569,0.13241,-1.36574,0.12043,0.32997,-0.29949,0.04406,0.00397,1.79826,-0.03011,-0.00038,2.07209,0.49215,0.22557,-0.29349,-0.62160,-4.07318,790.30841,786.67651,0.56589,12.87097,0.62160,-0.27506,-8.24067,8.99709,8.72202
44.93000,1.09569,0.13241,-1.36574,0.12043,0.32997,-0.29949,0.04406,0.00397,1.79826,-0.03011,-0.00038,2.07209,0.49215,0.22557,-0.29349,-0.62160,-4.07318,790.30841,791.53253,0.56589,12.87192,0.62160,-0.27355,-8.24067,8.99709,8.72353
44.93099,1.09569,0.13241,-1.36574,0.12282,0.32909,-0.31219,0.04406,0.00397,1.79826,-0.03011,-0.00038,2.07209,0.49215,0.22557,-0.29349,-0.62160,-4.07461,790.44763,796.44885,0.56593,12.87287,0.62160,-0.27199,-8.21710,8.99709,8.72509
44.93199,1.09569,0.13241,-1.36574,0.12282,0.32909,-0.31219,0.04406,0.00397,1.79826,-0.03011,-0.00038,2.07209,0.49215,0.22557,-0.29349,-0.62160,-4.07461,790.44763,797.15625,0.56593,12.87382,0.62160,-0.27043,-8.21710,8.99709,8.72665
44.93299,1.09569,0.13241,-1.36574,0.12945,0.32414,-0.32912,0.04406,0.00397,1.79826,-0.03011,-0.00038,2.07209,0.49215,0.22557,-0.29349,-0.62160,-4.07601,790.58276,797.86480,0.56597,12.87476,0.62160,-0.26901,-8.28521,8.99709,8.72807
44.93399,1.09569,0.13241,-1.36574,0.12945,0.32414,-0.32912,0.04406,0.00397,1.79826,-0.03011,-0.00038,2.07209,0.49215,0.22557,-0.29349,-0.62160,-4.07601,790.58276,804.29919,0.56597,12.87571,0.62160,-0.26758,-8.28521,8.99709,8.72950
44.93500,1.09569,0.13241,-1.36574,0.13920,0.32562,-0.34612,0.04406,0.00397,1.79826,-0.03011,-0.00038,2.07209,0.49215,0.22557,-0.29349,-0.62160,-4.07735,790.71246,804.29919,0.56600,12.87666,0.62160,-0.26614,-8.27662,8.99709,8.73094
44.93600,1.09569,0.13241,-1.36574,0.13920,0.32562,-0.34612,0.04406,0.00397,1.79826,-0.03011,-0.00038,2.07209,0.49215,0.22557,-0.29349,-0.62160,-4.07735,790.71246,804.29919,0.56600,12.87760,0.62160,-0.26470,-8.27662,8.99709,8.73238
44.93700,0.90249,0.22461,-1.34526,0.14125,0.33162,-0.35780,0.03698,0.00776,1.79826,-0.02887,0.00319,2.06850,0.49215,0.22557,-0.29349,-0.62160,-4.07763,790.74047,804.29919,0.56594,12.87854,0.62160,-0.26314,-8.21437,8.99470,8.73156
44.93799,0.90249,0.22461,-1.34526,0.14125,0.33162,-0.35780,0.03698,0.00776,1.79826,-0.02887,0.00319,2.06850,0.49215,0.22557,-0.29349,-0.62160,-4.07763,790.74047,804.29919,0.56594,12.87948,0.62160,-0.26158,-8.21437,8.99470,8.73312
44.93899,0.90249,0.22461,-1.34526,0.13799,0.33197,-0.36779,0.03698,0.00776,1.79826,-0.02887,0.00319,2.06850,0.49215,0.22557,-0.29349,-0.62160,-4.07905,790.87780,804.29919,0.56598,12.88042,0.62160,-0.26011,-8.25840,8.99470,8.73459
44.93999,0.90249,0.22461,-1.34526,0.13799,0.33197,-0.36779,0.03698,0.00776,1.79826,-0.02887,0.00319,2.06850,0.49215,0.22557,-0.29349,-0.62160,-4.07905,790.87780,804.29919,0.56598,12.88135,0.62160,-0.25864,-8.25840,8.99470,8.73606
44.94100,0.90249,0.22461,-1.34526,0.14193,0.32865,-0.38074,0.03698,0.00776,1.79826,-0.02887,0.00319,2.06850,0.49215,0.22557,-0.29349,-0.62160,-4.08032,791.00128,805.02056,0.56601,12.88228,0.62160,-0.25738,-8.36733,8.99470,8.73732
44.94200,0.90249,0.22461,-1.34526,0.14193,0.32865,-0.38074,0.03698,0.00776,1.79826,-0.02887,0.00319,2.06850,0.49215,0.22557,-0.29349,-0.62160,-4.08032,791.00128,790.83514,0.56601,12.88320,0.62160,-0.25613,-8.36733,8.99470,8.73857
44.94300,0.90249,0.22461,-1.34526,0.15169,0.33135,-0.39233,0.03698,0.00776,1.79826,-0.02887,0.00319,2.06850,0.49215,0.22557,-0.29349,-0.62160,-4.08151,791.11602,790.83514,0.56603,12.88412,0.62160,-0.25485,-8.35465,8.99470,8.73985
44.94400,0.90249,0.22461,-1.34526,0.15169,0.33135,-0.39233,0.03698,0.00776,1.79826,-0.02887,0.00319,2.06850,0.49215,0.22557,-0.29349,-0.62160,-4.08151,791.11602,790.83514,0.56603,12.88504,0.62160,-0.25357,-8.35465,8.99470,8.74113
44.94499,0.90249,0.22461,-1.34526,0.15484,0.33702,-0.39826,0.03698,0.00776,1.79826,-0.02887,0.00319,2.06850,0.49215,0.22557,-0.29349,-0.62160,-4.08280,791.24163,790.83514,0.56606,12.88595,0.62160,-0.25207,-8.24669,8.99470,8.74263
44.94599,0.90249,0.22461,-1.34526,0.15484,0.33702,-0.39826,0.03698,0.00776,1.79826,-0.02887,0.00319,2.06850,0.49215,0.22557,-0.29349,-0.62160,-4.08280,791.24163,788.75036,0.56606,12.88687,0.61750,-0.25057,-8.24682,8.99470,8.74412
44.94699,1.19481,0.11843,-1.32753,0.15219,0.33490,-0.40431,0.05028,0.00437,1.79826,-0.02749,0.00682,2.06433,0.48600,0.23917,-0.29349,-0.61750,-4.11432,794.28948,790.83514,0.56871,12.88777,0.61750,-0.24894,-8.24080,9.05905,8.81011
44.94800,1.19481,0.11843,-1.32753,0.15219,0.33490,-0.40431,0.05028,0.00437,1.79826,-0.02749,0.00682,2.06433,0.48600,0.23917,-0.29349,-0.61750,-4.11432,794.28948,799.28570,0.56871,12.88868,0.61750,-0.24730,-8.24080,9.05905,8.81175
44.94900,1.19481,0.11843,-1.32753,0.15564,0.32760,-0.41671,0.05028,0.00437,1.79826,-0.02749,0.00682,2.06433,0.48600,0.23917,-0.29349,-0.61750,-4.11576,794.42907,799.99810,0.56876,12.88958,0.61750,-0.24584,-8.32894,9.05905,8.81321
44.95000,1.19481,0.11843,-1.32753,0.15564,0.32760,-0.41671,0.05028,0.00437,1.79826,-0.02749,0.00682,2.06433,0.48600,0.23917,-0.29349,-0.61750,-4.11576,794.42907,799.99810,0.56876,12.89048,0.61750,-0.24438,-8.32894,9.05905,8.81467
44.95100,1.19481,0.11843,-1.32753,0.16467,0.32625,-0.43097,0.05028,0.00437,1.79826,-0.02749,0.00682,2.06433,0.48600,0.23917,-0.29349,-0.61750,-4.11712,794.55963,799.99810,0.56880,12.89137,0.61750,-0.24294,-8.34063,9.05905,8.81610
44.95199,1.19481,0.11843,-1.32753,0.16467,0.32625,-0.43097,0.05028,0.00437,1.79826,-0.02749,0.00682,2.06433,0.48600,0.23917,-0.29349,-0.61750,-4.11712,794.55963,799.28570,0.56880,12.89226,0.61750,-0.24151,-8.34063,9.05905,8.81754
44.95299,1.19481,0.11843,-1.32753,0.16840,0.32915,-0.44102,0.05028,0.00437,1.79826,-0.02749,0.00682,2.06433,0.48600,0.23917,-0.29349,-0.61750,-4.11850,794.69262,799.28570,0.56884,12.89315,0.61750,-0.23999,-8.30154,9.05905,8.81906
44.95399,1.19481,0.11843,-1.32753,0.16840,0.32915,-0.44102,0.05028,0.00437,1.79826,-0.02749,0.00682,2.06433,0.48600,0.23917,-0.29349,-0.61750,-4.11850,794.69262,799.28570,0.56884,12.89403,0.61750,-0.23848,-8.30154,9.05905,8.82057
44.95500,1.19481,0.11843,-1.32753,0.16829,0.32617,-0.45058,0.05028,0.00437,1.79826,-0.02749,0.00682,2.06433,0.48600,0.23917,-0.29349,-0.61750,-4.11984,794.82263,795.74279,0.56887,12.89491,0.61750,-0.23710,-8.37321,9.05905,8.82194
44.95600,1.19481,0.11843,-1.32753,0.16829,0.32617,-0.45058,0.05028,0.00437,1.79826,-0.02749,0.00682,2.06433,0.48600,0.23917,-0.29349,-0.61750,-4.11984,794.82263,792.23114,0.56887,12.89578,0.61750,-0.23573,-8.37321,9.05905,8.82331
44.95700,0.93564,0.17063,-1.30313,0.17524,0.31936,-0.46432,0.04208,0.00716,1.79826,-0.02597,0.01038,2.05970,0.48600,0.23917,-0.29349,-0.61750,-4.11946,794.78582,795.74279,0.56876,12.89666,0.61750,-0.23463,-8.50646,9.05576,8.82112
44.95800,0.93564,0.17063,-1.30313,0.17524,0.31936,-0.46432,0.04208,0.00716,1.79826,-0.02597,0.01038,2.05970,0.48600,0.23917,-0.29349,-0.61750,-4.11946,794.78582,792.23114,0.56876,12.89753,0.61750,-0.23354,-8.50646,9.05576,8.82222
44.95899,0.93564,0.17063,-1.30313,0.18697,0.31854,-0.47730,0.04208,0.00716,1.79826,-0.02597,0.01038,2.05970,0.48600,0.23917,-0.29349,-0.61750,-4.12048,794.88409,790.83514,0.56878,12.89839,0.61750,-0.23245,-8.51396,9.05576,8.82331
44.95999,0.93564,0.17063,-1.30313,0.18697,0.31854,-0.47730,0.04208,0.00716,1.79826,-0.02597,0.01038,2.05970,0.48600,0.23917,-0.29349,-0.61750,-4.12048,794.88409,788.05786,0.56878,12.89926,0.61750,-0.23137,-8.51396,9.05576,8.82439
44.96099,0.93564,0.17063,-1.30313,0.19109,0.32134,-0.48412,0.04208,0.00716,1.79826,-0.02597,0.01038,2.05970,0.48600,0.23917,-0.29349,-0.61750,-4.12157,794.98901,788.05786,0.56879,12.90012,0.61750,-0.23012,-8.43286,9.05576,8.82563
44.96200,0.93564,0.17063,-1.30313,0.19109,0.32134,-0.48412,0.04208,0.00716,1.79826,-0.02597,0.01038,2.05970,0.48600,0.23917,-0.29349,-0.61750,-4.12157,794.98901,788.05786,0.56879,12.90098,0.61750,-0.22888,-8.43286,9.05576,8.82688
44.96300,0.93564,0.17063,-1.30313,0.18835,0.31821,-0.48925,0.04208,0.00716,1.79826,-0.02597,0.01038,2.05970,0.48600,0.23917,-0.29349,-0.61750,-4.12271,795.09948,790.83514,0.56882,12.90183,0.61750,-0.22767,-8.45233,9.05576,8.82809
44.96400,0.93564,0.17063,-1.30313,0.18835,0.31821,-0.48925,0.04208,0.00716,1.79826,-0.02597,0.01038,2.05970,0.48600,0.23917,-0.29349,-0.61750,-4.12271,795.09948,790.83514,0.56882,12.90268,0.61750,-0.22646,-8.45233,9.05576,8.82929
44.96500,0.93564,0.17063,-1.30313,0.19028,0.31200,-0.49801,0.04208,0.00716,1.79826,-0.02597,0.01038,2.05970,0.48600,0.23917,-0.29349,-0.61750,-4.12376,795.19982,790.83514,0.56883,12.90353,0.61750,-0.22544,-8.54483,9.05576,8.83032
44.96599,0.93564,0.17063,-1.30313,0.19028,0.31200,-0.49801,0.04208,0.00716,1.79826,-0.02597,0.01038,2.05970,0.48600,0.23917,-0.29349,-0.61750,-4.12376,795.19982,790.83514,0.56883,12.90438,0.61450,-0.22442,-8.54484,9.05576,8.83134
44.96699,0.99726,-0.00297,-1.28170,0.19720,0.31209,-0.50619,0.04372,0.00012,1.79826,-0.02417,0.01378,2.05454,0.48150,0.26483,-0.29349,-0.61450,-4.16727,799.38482,790.83514,0.57250,12.90522,0.61450,-0.22322,-8.54906,9.14674,8.92351
44.96799,0.99726,-0.00297,-1.28170,0.19720,0.31209,-0.50619,0.04372,0.00012,1.79826,-0.02417,0.01378,2.05454,0.48150,0.26483,-0.29349,-0.61450,-4.16727,799.38482,790.83514,0.57250,12.90607,0.61450,-0.22203,-8.54906,9.14674,8.92470
44.96900,0.99726,-0.00297,-1.28170,0.20043,0.31501,-0.50904,0.04372,0.00012,1.79826,-0.02417,0.01378,2.05454,0.48150,0.26483,-0.29349,-0.61450,-4.16842,799.49493,790.83514,0.57252,12.90690,0.61450,-0.22077,-8.51503,9.14674,8.92597
44.97000,0.99726,-0.00297,-1.28170,0.20043,0.31501,-0.50904,0.04372,0.00012,1.79826,-0.02417,0.01378,2.05454,0.48150,0.26483,-0.29349,-0.61450,-4.16842,799.49493,790.83514,0.57252,12.90774,0.61450,-0.21950,-8.51503,9.14674,8.92723
44.97100,0.99726,-0.00297,-1.28170,0.20216,0.31143,-0.51128,0.04372,0.00012,1.79826,-0.02417,0.01378,2.05454,0.48150,0.26483,-0.29349,-0.61450,-4.16953,799.60131,790.83514,0.57254,12.90857,0.61450,-0.21839,-8.59124,9.14674,8.92834
44.97200,0.99726,-0.00297,-1.28170,0.20216,0.31143,-0.51128,0.04372,0.00012,1.79826,-0.02417,0.01378,2.05454,0.48150,0.26483,-0.29349,-0.61450,-4.16953,799.60131,795.74279,0.57254,12.90940,0.61450,-0.21728,-8.59124,9.14674,8.92945
44.97299,0.99726,-0.00297,-1.28170,0.21055,0.30526,-0.51776,0.04372,0.00012,1.79826,-0.02417,0.01378,2.05454,0.48150,0.26483,-0.29349,-0.61450,-4.17047,799.69097,795.74279,0.57255,12.91022,0.61450,-0.21639,-8.70086,9.14674,8.93034
44.97399,0.99726,-0.00297,-1.28170,0.21055,0.30526,-0.51776,0.04372,0.00012,1.79826,-0.02417,0.01378,2.05454,0.48150,0.26483,-0.29349,-0.61450,-4.17047,799.69097,795.74279,0.57255,12.91104,0.61450,-0.21550,-8.70086,9.14674,8.93123
44.97499,0.99726,-0.00297,-1.28170,0.22042,0.30573,-0.52400,0.04372,0.00012,1.79826,-0.02417,0.01378,2.05454,0.48150,0.26483,-0.29349,-0.61450,-4.17132,799.77233,795.74279,0.57255,12.91185,0.61450,-0.21457,-8.68430,9.14674,8.93216
44.97600,0.99726,-0.00297,-1.28170,0.22042,0.30573,-0.52400,0.04372,0.00012,1.79826,-0.02417,0.01378,2.05454,0.48150,0.26483,-0.29349,-0.61450,-4.17132,799.77233,795.74279,0.57255,12.91266,0.60970,-0.21365,-8.68430,9.14674,8.93308
44.97700,1.06604,-0.05271,-1.25560,0.22089,0.30822,-0.52571,0.04777,-0.00411,1.79826,-0.02219,0.01709,2.04913,0.47430,0.28043,-0.29349,-0.60970,-4.20511,803.00585,797.15625,0.57537,12.91347,0.60970,-0.21246,-8.62160,9.21699,9.00453
44.97800,1.06604,-0.05271,-1.25560,0.22089,0.30822,-0.52571,0.04777,-0.00411,1.79826,-0.02219,0.01709,2.04913,0.47430,0.28043,-0.29349,-0.60970,-4.20511,803.00585,797.15625,0.57537,12.91428,0.60970,-0.21127,-8.62160,9.21699,9.00572
44.97900,1.06604,-0.05271,-1.25560,0.21656,0.30297,-0.52760,0.04777,-0.00411,1.79826,-0.02219,0.01709,2.04913,0.47430,0.28043,-0.29349,-0.60970,-4.20617,803.10650,797.15625,0.57538,12.91508,0.60970,-0.21020,-8.68387,9.21699,9.00679
44.97999,1.06604,-0.05271,-1.25560,0.21656,0.30297,-0.52760,0.04777,-0.00411,1.79826,-0.02219,0.01709,2.04913,0.47430,0.28043,-0.29349,-0.60970,-4.20617,803.10650,797.15625,0.57538,12.91587,0.60970,-0.20913,-8.68387,9.21699,9.00786
44.98099,1.06604,-0.05271,-1.25560,0.21932,0.29488,-0.53350,0.04777,-0.00411,1.79826,-0.02219,0.01709,2.04913,0.47430,0.28043,-0.29349,-0.60970,-4.20706,803.19165,795.74279,0.57539,12.91667,0.60970,-0.20829,-8.79552,9.21699,9.00870
44.98199,1.06604,-0.05271,-1.25560,0.21932,0.29488,-0.53350,0.04777,-0.00411,1.79826,-0.02219,0.01709,2.04913,0.47430,0.28043,-0.29349,-0.60970,-4.20706,803.19165,797.15625,0.57539,12.91746,0.60970,-0.20745,-8.79552,9.21699,9.00954
44.98300,1.06604,-0.05271,-1.25560,0.22632,0.29436,-0.53799,0.04777,-0.00411,1.79826,-0.02219,0.01709,2.04913,0.47430,0.28043,-0.29349,-0.60970,-4.20785,803.26708,797.15625,0.57539,12.91824,0.60970,-0.20660,-8.79208,9.21699,9.01039
44.98400,1.06604,-0.05271,-1.25560,0.22632,0.29436,-0.53799,0.04777,-0.00411,1.79826,-0.02219,0.01709,2.04913,0.47430,0.28043,-0.29349,-0.60970,-4.20785,803.26708,797.15625,0.57539,12.91902,0.60970,-0.20575,-8.79208,9.21699,9.01124
44.98500,1.06604,-0.05271,-1.25560,0.22740,0.29724,-0.53721,0.04777,-0.00411,1.79826,-0.02219,0.01709,2.04913,0.47430,0.28043,-0.29349,-0.60970,-4.20869,803.34680,797.86480,0.57539,12.91980,0.60970,-0.20481,-8.74786,9.21699,9.01218
44.98600,1.06604,-0.05271,-1.25560,0.22740,0.29724,-0.53721,0.04777,-0.00411,1.79826,-0.02219,0.01709,2.04913,0.47430,0.28043,-0.29349,-0.60970,-4.20869,803.34680,813.04156,0.57539,12.92058,0.60970,-0.20387,-8.74788,9.21699,9.01312
44.98699,0.92530,0.07554,-1.22499,0.22605,0.29375,-0.53714,0.04267,0.00092,1.79826,-0.02003,0.02030,2.04357,0.47430,0.28043,-0.29349,-0.60970,-4.20848,803.32727,804.29919,0.57530,12.92135,0.60970,-0.20304,-8.80132,9.21479,9.01174
44.98799,0.92530,0.07554,-1.22499,0.22605,0.29375,-0.53714,0.04267,0.00092,1.79826,-0.02003,0.02030,2.04357,0.47430,0.28043,-0.29349,-0.60970,-4.20848,803.32727,804.29919,0.57530,12.92211,0.60970,-0.20222,-8.80132,9.21479,9.01257
44.98899,0.92530,0.07554,-1.22499,0.23137,0.28772,-0.54247,0.04267,0.00092,1.79826,-0.02003,0.02030,2.04357,0.47430,0.28043,-0.29349,-0.60970,-4.20919,803.39471,804.29919,0.57529,12.92288,0.60970,-0.20153,-8.87165,9.21479,9.01325
44.99000,0.92530,0.07554,-1.22499,0.23137,0.28772,-0.54247,0.04267,0.00092,1.79826,-0.02003,0.02030,2.04357,0.47430,0.28043,-0.29349,-0.60970,-4.20919,803.39471,804.29919,0.57529,12.92364,0.60970,-0.20084,-8.87165,9.21479,9.01394
44.99100,0.92530,0.07554,-1.22499,0.23849,0.28765,-0.54832,0.04267,0.00092,1.79826,-0.02003,0.02030,2.04357,0.47430,0.28043,-0.29349,-0.60970,-4.20986,803.45928,805.02056,0.57528,12.92440,0.60970,-0.20008,-8.83296,9.21479,9.01470
44.99200,0.92530,0.07554,-1.22499,0.23849,0.28765,-0.54832,0.04267,0.00092,1.79826,-0.02003,0.02030,2.04357,0.47430,0.28043,-0.29349,-0.60970,-4.20986,803.45928,805.02056,0.57528,12.92515,0.60970,-0.19932,-8.83296,9.21479,9.01547
44.99300,0.92530,0.07554,-1.22499,0.23787,0.28892,-0.55045,0.04267,0.00092,1.79826,-0.02003,0.02030,2.04357,0.47430,0.28043,-0.29349,-0.60970,-4.21063,803.53240,804.29919,0.57528,12.92590,0.60970,-0.19844,-8.77684,9.21479,9.01634
44.99399,0.92530,0.07554,-1.22499,0.23787,0.28892,-0.55045,0.04267,0.00092,1.79826,-0.02003,0.02030,2.04357,0.47430,0.28043,-0.29349,-0.60970,-4.21063,803.53240,804.29919,0.57528,12.92664,0.60970,-0.19757,-8.77684,9.21479,9.01722
44.99499,0.92530,0.07554,-1.22499,0.23478,0.28381,-0.55272,0.04267,0.00092,1.79826,-0.02003,0.02030,2.04357,0.47430,0.28043,-0.29349,-0.60970,-4.21139,803.60491,805.02056,0.57528,12.92738,0.60970,-0.19681,-8.83872,9.21479,9.01797
44.99599,0.92530,0.07554,-1.22499,0.23478,0.28381,-0.55272,0.04267,0.00092,1.79826,-0.02003,0.02030,2.04357,0.47430,0.28043,-0.29349,-0.60970,-4.21139,803.60491,804.29919,0.57528,12.92812,0.60480,-0.19606,-8.83872,9.21479,9.01872
44.99700,1.11899,-0.05142,-1.19887,0.23911,0.27824,-0.55707,0.05165,-0.00331,1.79826,-0.01778,0.02339,2.03788,0.46695,0.29474,-0.29349,-0.60480,-4.24431,806.73968,804.29919,0.57801,12.92885,0.60480,-0.19534,-8.92576,9.28381,9.08846
44.99800,1.11899,-0.05142,-1.19887,0.23911,0.27824,-0.55707,0.05165,-0.00331,1.79826,-0.01778,0.02339,2.03788,0.46695,0.29474,-0.29349,-0.60480,-4.24431,806.73968,804.29919,0.57801,12.92958,0.60480,-0.19463,-8.92576,9.28381,9.08918
44.99900,1.11899,-0.05142,-1.19887,0.24612,0.28013,-0.55805,0.05165,-0.00331,1.79826,-0.01778,0.02339,2.03788,0.46695,0.29474,-0.29349,-0.60480,-4.24499,806.80468,803.57916,0.57800,12.93031,0.60480,-0.19388,-8.90891,9.28381,9.08993
45.00000,1.11899,-0.05142,-1.19887,0.24612,0.28013,-0.55805,0.05165,-0.00331,1.79826,-0.01778,0.02339,2.03788,0.46695,0.29474,-0.29349,-0.60480,-4.24499,806.80468,803.57916,0.57800,12.93103,0.60480,-0.19313,-8.90891,9.28381,9.09068
45.00099,1.11899,-0.05142,-1.19887,0.24694,0.28312,-0.55418,0.05165,-0.00331,1.79826,-0.01778,0.02339,2.03788,0.46695,0.29474,-0.29349,-0.60480,-4.24571,806.87292,795.74279,0.57800,12.93175,0.60480,-0.19234,-8.88947,9.28381,9.09147
45.00199,1.11899,-0.05142,-1.19887,0.24694,0.28312,-0.55418,0.05165,-0.00331,1.79826,-0.01778,0.02339,2.03788,0.46695,0.29474,-0.29349,-0.60480,-4.24571,806.87292,793.63208,0.57800,12.93247,0.60480,-0.19155,-8.88947,9.28381,9.09226
45.00299,1.11899,-0.05142,-1.19887,0.24656,0.27921,-0.55288,0.05165,-0.00331,1.79826,-0.01778,0.02339,2.03788,0.46695,0.29474,-0.29349,-0.60480,-4.24637,806.93499,795.74279,0.57799,12.93318,0.60480,-0.19094,-8.97906,9.28381,9.09287
45.00400,1.11899,-0.05142,-1.19887,0.24656,0.27921,-0.55288,0.05165,-0.00331,1.79826,-0.01778,0.02339,2.03788,0.46695,0.29474,-0.29349,-0.60480,-4.24637,806.93499,800.71173,0.57799,12.93388,0.60480,-0.19033,-8.97906,9.28381,9.09348
45.00500,1.11899,-0.05142,-1.19887,0.25195,0.27432,-0.55730,0.05165,-0.00331,1.79826,-0.01778,0.02339,2.03788,0.46695,0.29474,-0.29349,-0.60480,-4.24686,806.98168,803.57916,0.57797,12.93458,0.60480,-0.18989,-9.06262,9.28381,9.09392
45.00600,1.11899,-0.05142,-1.19887,0.25195,0.27432,-0.55730,0.05165,-0.00331,1.79826,-0.01778,0.02339,2.03788,0.46695,0.29474,-0.29349,-0.60480,-4.24686,806.98168,803.57916,0.57797,12.93527,0.59940,-0.18945,-9.06264,9.28381,9.09436
45.00699,1.08561,-0.14635,-1.17124,0.25576,0.27525,-0.56061,0.05390,-0.00858,1.79826,-0.01535,0.02642,2.03212,0.45885,0.31655,-0.29349,-0.59940,-4.29001,811.07080,803.57916,0.58156,12.93596,0.59940,-0.18876,-9.03066,9.37508,9.18631
45.00799,1.08561,-0.14635,-1.17124,0.25576,0.27525,-0.56061,0.05390,-0.00858,1.79826,-0.01535,0.02642,2.03212,0.45885,0.31655,-0.29349,-0.59940,-4.29001,811.07080,803.57916,0.58156,12.93665,0.59940,-0.18807,-9.03066,9.37508,9.18700
45.00899,1.08561,-0.14635,-1.17124,0.25098,0.27519,-0.55855,0.05390,-0.00858,1.79826,-0.01535,0.02642,2.03212,0.45885,0.31655,-0.29349,-0.59940,-4.29067,811.13409,805.74316,0.58155,12.93732,0.59940,-0.18732,-9.00239,9.37508,9.18775
45.00999,1.08561,-0.14635,-1.17124,0.25098,0.27519,-0.55855,0.05390,-0.00858,1.79826,-0.01535,0.02642,2.03212,0.45885,0.31655,-0.29349,-0.59940,-4.29067,811.13409,810.10638,0.58155,12.93800,0.59940,-0.18658,-9.00239,9.37508,9.18849
45.01100,1.08561,-0.14635,-1.17124,0.24698,0.26798,-0.55521,0.05390,-0.00858,1.79826,-0.01535,0.02642,2.03212,0.45885,0.31655,-0.29349,-0.59940,-4.29130,811.19299,810.10638,0.58154,12.93866,0.59940,-0.18599,-9.08075,9.37508,9.18908
45.01200,1.08561,-0.14635,-1.17124,0.24698,0.26798,-0.55521,0.05390,-0.00858,1.79826,-0.01535,0.02642,2.03212,0.45885,0.31655,-0.29349,-0.59940,-4.29130,811.19299,813.77874,0.58154,12.93932,0.59940,-0.18540,-9.08075,9.37508,9.18967
45.01300,1.08561,-0.14635,-1.17124,0.25297,0.26195,-0.55180,0.05390,-0.00858,1.79826,-0.01535,0.02642,2.03212,0.45885,0.31655,-0.29349,-0.59940,-4.29179,811.23937,813.77874,0.58153,12.93998,0.59940,-0.18494,-9.14362,9.37508,9.19013
45.01399,1.08561,-0.14635,-1.17124,0.25297,0.26195,-0.55180,0.05390,-0.00858,1.79826,-0.01535,0.02642,2.03212,0.45885,0.31655,-0.29349,-0.59940,-4.29179,811.23937,813.77874,0.58153,12.94063,0.59940,-0.18448,-9.14362,9.37508,9.19060
45.01499,1.08561,-0.14635,-1.17124,0.26076,0.26395,-0.54326,0.05390,-0.00858,1.79826,-0.01535,0.02642,2.03212,0.45885,0.31655,-0.29349,-0.59940,-4.29226,811.28430,815.25689,0.58151,12.94128,0.59940,-0.18392,-9.09780,9.37508,9.19115
45.01599,1.08561,-0.14635,-1.17124,0.26076,0.26395,-0.54326,0.05390,-0.00858,1.79826,-0.01535,0.02642,2.03212,0.45885,0.31655,-0.29349,-0.59940,-4.29226,811.28430,815.25689,0.58151,12.94192,0.59369,-0.18337,-9.09780,9.37508,9.19170
45.01699,1.06229,-0.17190,-1.14257,0.26083,0.26577,-0.53051,0.05545,-0.01165,1.79826,-0.01286,0.02935,2.02642,0.45029,0.33524,-0.29349,-0.59369,-4.33163,814.99572,815.25689,0.58476,12.94256,0.59369,-0.18258,-9.06635,9.45803,9.27544
45.01800,1.06229,-0.17190,-1.14257,0.26083,0.26577,-0.53051,0.05545,-0.01165,1.79826,-0.01286,0.02935,2.02642,0.45029,0.33524,-0.29349,-0.59369,-4.33163,814.99572,815.25689,0.58476,12.94320,0.59369,-0.18180,-9.06635,9.45803,9.27622
45.01900,1.06229,-0.17190,-1.14257,0.25954,0.26054,-0.52223,0.05545,-0.01165,1.79826,-0.01286,0.02935,2.02642,0.45029,0.33524,-0.29349,-0.59369,-4.33230,815.05865,815.25689,0.58476,12.94382,0.59369,-0.18115,-9.13361,9.45803,9.27687
45.02000,1.06229,-0.17190,-1.14257,0.25954,0.26054,-0.52223,0.05545,-0.01165,1.79826,-0.01286,0.02935,2.02642,0.45029,0.33524,-0.29349,-0.59369,-4.33230,815.05865,813.77874,0.58476,12.94445,0.59369,-0.18050,-9.13361,9.45803,9.27752
45.02099,1.06229,-0.17190,-1.14257,0.26428,0.25558,-0.52039,0.05545,-0.01165,1.79826,-0.01286,0.02935,2.02642,0.45029,0.33524,-0.29349,-0.59369,-4.33286,815.11193,810.83819,0.58475,12.94507,0.59369,-0.17994,-9.17617,9.45803,9.27808
45.02199,1.06229,-0.17190,-1.14257,0.26428,0.25558,-0.52039,0.05545,-0.01165,1.79826,-0.01286,0.02935,2.02642,0.45029,0.33524,-0.29349,-0.59369,-4.33286,815.11193,810.83819,0.58475,12.94568,0.59369,-0.17938,-9.17617,9.45803,9.27865
45.02299,1.06229,-0.17190,-1.14257,0.26852,0.25592,-0.51780,0.05545,-0.01165,1.79826,-0.01286,0.02935,2.02642,0.45029,0.33524,-0.29349,-0.59369,-4.33344,815.16625,805.74316,0.58474,12.94629,0.59369,-0.17870,-9.12149,9.45803,9.27932
45.02399,1.06229,-0.17190,-1.14257,0.26852,0.25592,-0.51780,0.05545,-0.01165,1.79826,-0.01286,0.02935,2.02642,0.45029,0.33524,-0.29349,-0.59369,-4.33344,815.16625,810.10638,0.58474,12.94689,0.59369,-0.17803,-9.12149,9.45803,9.27999
45.02500,1.06229,-0.17190,-1.14257,0.26703,0.25359,-0.51198,0.05545,-0.01165,1.79826,-0.01286,0.02935,2.02642,0.45029,0.33524,-0.29349,-0.59369,-4.33408,815.22637,805.74316,0.58474,12.94749,0.59369,-0.17733,-9.11021,9.45803,9.28069
45.02600,1.06229,-0.17190,-1.14257,0.26703,0.25359,-0.51198,0.05545,-0.01165,1.79826,-0.01286,0.02935,2.02642,0.45029,0.33524,-0.29349,-0.59369,-4.33408,815.22637,805.74316,0.58474,12.94808,0.59369,-0.17664,-9.11022,9.45803,9.28138
45.02700,0.91050,-0.03888,-1.11422,0.26796,0.24508,-0.50768,0.04959,-0.00594,1.79826,-0.01021,0.03219,2.02113,0.45029,0.33524,-0.29349,-0.59369,-4.33305,815.12921,805.74316,0.58460,12.94867,0.59369,-0.17616,-9.21525,9.45464,9.27847
45.02799,0.91050,-0.03888,-1.11422,0.26796,0.24508,-0.50768,0.04959,-0.00594,1.79826,-0.01021,0.03219,2.02113,0.45029,0.33524,-0.29349,-0.59369,-4.33305,815.12921,807.19238,0.58460,12.94925,0.59369,-0.17568,-9.21525,9.45464,9.27895
45.02899,0.91050,-0.03888,-1.11422,0.27570,0.24018,-0.50478,0.04959,-0.00594,1.79826,-0.01021,0.03219,2.02113,0.45029,0.33524,-0.29349,-0.59369,-4.33344,815.16656,807.19238,0.58458,12.94982,0.59369,-0.17531,-9.26896,9.45464,9.27933
45.02999,0.91050,-0.03888,-1.11422,0.27570,0.24018,-0.50478,0.04959,-0.00594,1.79826,-0.01021,0.03219,2.02113,0.45029,0.33524,-0.29349,-0.59369,-4.33344,815.16656,807.19238,0.58458,12.95040,0.59369,-0.17494,-9.26896,9.45464,9.27970
45.03099,0.91050,-0.03888,-1.11422,0.28065,0.24278,-0.49785,0.04959,-0.00594,1.79826,-0.01021,0.03219,2.02113,0.45029,0.33524,-0.29349,-0.59369,-4.33387,815.20654,805.74316,0.58457,12.95096,0.59369,-0.17440,-9.18532,9.45464,9.28024
45.03200,0.91050,-0.03888,-1.11422,0.28065,0.24278,-0.49785,0.04959,-0.00594,1.79826,-0.01021,0.03219,2.02113,0.45029,0.33524,-0.29349,-0.59369,-4.33387,815.20654,807.19238,0.58457,12.95153,0.59369,-0.17386,-9.18532,9.45464,9.28077
45.03300,0.91050,-0.03888,-1.11422,0.27831,0.24278,-0.48852,0.04959,-0.00594,1.79826,-0.01021,0.03219,2.02113,0.45029,0.33524,-0.29349,-0.59369,-4.33442,815.25872,807.19238,0.58456,12.95208,0.59369,-0.17321,-9.12868,9.45464,9.28143
45.03400,0.91050,-0.03888,-1.11422,0.27831,0.24278,-0.48852,0.04959,-0.00594,1.79826,-0.01021,0.03219,2.02113,0.45029,0.33524,-0.29349,-0.59369,-4.33442,815.25872,807.19238,0.58456,12.95264,0.59369,-0.17256,-9.12868,9.45464,9.28208
45.03499,0.91050,-0.03888,-1.11422,0.27858,0.23614,-0.48427,0.04959,-0.00594,1.79826,-0.01021,0.03219,2.02113,0.45029,0.33524,-0.29349,-0.59369,-4.33498,815.31134,807.19238,0.58456,12.95318,0.59369,-0.17201,-9.18179,9.45464,9.28262
45.03599,0.91050,-0.03888,-1.11422,0.27858,0.23614,-0.48427,0.04959,-0.00594,1.79826,-0.01021,0.03219,2.02113,0.45029,0.33524,-0.29349,-0.59369,-4.33498,815.31134,807.19238,0.58456,12.95372,0.59000,-0.17147,-9.18179,9.45464,9.28317
45.03699,0.98331,-0.22913,-1.09020,0.28563,0.23205,-0.48473,0.05200,-0.01312,1.79826,-0.00743,0.03485,2.01609,0.44475,0.33490,-0.29349,-0.59000,-4.34364,816.12542,815.99810,0.58523,12.95426,0.59000,-0.17092,-9.19870,9.47209,9.30117
45.03799,0.98331,-0.22913,-1.09020,0.28563,0.23205,-0.48473,0.05200,-0.01312,1.79826,-0.00743,0.03485,2.01609,0.44475,0.33490,-0.29349,-0.59000,-4.34364,816.12542,815.99810,0.58523,12.95479,0.59000,-0.17037,-9.19870,9.47209,9.30171
45.03900,0.98331,-0.22913,-1.09020,0.28969,0.23338,-0.48288,0.05200,-0.01312,1.79826,-0.00743,0.03485,2.01609,0.44475,0.33490,-0.29349,-0.59000,-4.34422,816.17950,818.97613,0.58523,12.95532,0.59000,-0.16968,-9.12862,9.47209,9.30240
45.04000,0.98331,-0.22913,-1.09020,0.28969,0.23338,-0.48288,0.05200,-0.01312,1.79826,-0.00743,0.03485,2.01609,0.44475,0.33490,-0.29349,-0.59000,-4.34422,816.17950,821.22412,0.58523,12.95584,0.59000,-0.16900,-9.12862,9.47209,9.30309
45.04100,0.98331,-0.22913,-1.09020,0.28755,0.23102,-0.47859,0.05200,-0.01312,1.79826,-0.00743,0.03485,2.01609,0.44475,0.33490,-0.29349,-0.59000,-4.34486,816.23962,821.22412,0.58524,12.95636,0.59000,-0.16831,-9.13051,9.47209,9.30377
45.04199,0.98331,-0.22913,-1.09020,0.28755,0.23102,-0.47859,0.05200,-0.01312,1.79826,-0.00743,0.03485,2.01609,0.44475,0.33490,-0.29349,-0.59000,-4.34486,816.23962,821.22412,0.58524,12.95687,0.59000,-0.16763,-9.13051,9.47209,9.30445
45.04299,0.98331,-0.22913,-1.09020,0.28915,0.22338,-0.47688,0.05200,-0.01312,1.79826,-0.00743,0.03485,2.01609,0.44475,0.33490,-0.29349,-0.59000,-4.34540,816.29022,815.99810,0.58524,12.95738,0.59000,-0.16716,-9.23715,9.47209,9.30492
45.04399,0.98331,-0.22913,-1.09020,0.28915,0.22338,-0.47688,0.05200,-0.01312,1.79826,-0.00743,0.03485,2.01609,0.44475,0.33490,-0.29349,-0.59000,-4.34540,816.29022,815.99810,0.58524,12.95789,0.59000,-0.16669,-9.23715,9.47209,9.30539
45.04499,0.98331,-0.22913,-1.09020,0.29666,0.21996,-0.47545,0.05200,-0.01312,1.79826,-0.00743,0.03485,2.01609,0.44475,0.33490,-0.29349,-0.59000,-4.34581,816.32891,827.27917,0.58523,12.95840,0.59000,-0.16628,-9.26597,9.47209,9.30581
45.04600,0.98331,-0.22913,-1.09020,0.29666,0.21996,-0.47545,0.05200,-0.01312,1.79826,-0.00743,0.03485,2.01609,0.44475,0.33490,-0.29349,-0.59000,-4.34581,816.32891,827.27917,0.58523,12.95890,0.59000,-0.16587,-9.26606,9.47209,9.30622
45.04700,0.90042,-0.10138,-1.06432,0.30008,0.22127,-0.46831,0.04877,-0.00802,1.79826,-0.00448,0.03737,2.01118,0.44475,0.33490,-0.29349,-0.59000,-4.34531,816.28179,827.27917,0.58514,12.95940,0.59000,-0.16530,-9.18577,9.47004,9.30473
45.04800,0.90042,-0.10138,-1.06432,0.30008,0.22127,-0.46831,0.04877,-0.00802,1.79826,-0.00448,0.03737,2.01118,0.44475,0.33490,-0.29349,-0.59000,-4.34531,816.28179,822.72949,0.58514,12.95990,0.59000,-0.16473,-9.18577,9.47004,9.30530
45.04899,0.90042,-0.10138,-1.06432,0.29850,0.21745,-0.45875,0.04877,-0.00802,1.79826,-0.00448,0.03737,2.01118,0.44475,0.33490,-0.29349,-0.59000,-4.34585,816.33300,821.22412,0.58514,12.96039,0.59000,-0.16413,-9.17057,9.47004,9.30590
45.04999,0.90042,-0.10138,-1.06432,0.29850,0.21745,-0.45875,0.04877,-0.00802,1.79826,-0.00448,0.03737,2.01118,0.44475,0.33490,-0.29349,-0.59000,-4.34585,816.33300,821.22412,0.58514,12.96088,0.59000,-0.16353,-9.17057,9.47004,9.30650
45.05099,0.90042,-0.10138,-1.06432,0.30237,0.20894,-0.45421,0.04877,-0.00802,1.79826,-0.00448,0.03737,2.01118,0.44475,0.33490,-0.29349,-0.59000,-4.34635,816.37969,821.22412,0.58514,12.96137,0.59000,-0.16307,-9.23743,9.47004,9.30697
45.05199,0.90042,-0.10138,-1.06432,0.30237,0.20894,-0.45421,0.04877,-0.00802,1.79826,-0.00448,0.03737,2.01118,0.44475,0.33490,-0.29349,-0.59000,-4.34635,816.37969,821.22412,0.58514,12.96186,0.59000,-0.16260,-9.23743,9.47004,9.30743
45.05300,0.90042,-0.10138,-1.06432,0.31149,0.20625,-0.45290,0.04877,-0.00802,1.79826,-0.00448,0.03737,2.01118,0.44475,0.33490,-0.29349,-0.59000,-4.34680,816.42205,821.22412,0.58513,12.96234,0.59000,-0.16210,-9.22011,9.47004,9.30793
45.05400,0.90042,-0.10138,-1.06432,0.31149,0.20625,-0.45290,0.04877,-0.00802,1.79826,-0.00448,0.03737,2.01118,0.44475,0.33490,-0.29349,-0.59000,-4.34680,816.42205,821.97613,0.58513,12.96282,0.59000,-0.16160,-9.22011,9.47004,9.30843
45.05500,0.90042,-0.10138,-1.06432,0.31455,0.20903,-0.44877,0.04877,-0.00802,1.79826,-0.00448,0.03737,2.01118,0.44475,0.33490,-0.29349,-0.59000,-4.34736,816.47442,821.97613,0.58514,12.96330,0.59000,-0.16091,-9.12276,9.47004,9.30913
45.05599,0.90042,-0.10138,-1.06432,0.31455,0.20903,-0.44877,0.04877,-0.00802,1.79826,-0.00448,0.03737,2.01118,0.44475,0.33490,-0.29349,-0.59000,-4.34736,816.47442,821.97613,0.58514,12.96377,0.58400,-0.16021,-9.12276,9.47004,9.30982
45.05699,1.00982,-0.21489,-1.04071,0.31191,0.20745,-0.44318,0.05402,-0.01162,1.79826,-0.00137,0.03974,2.00651,0.43574,0.35143,-0.29349,-0.58400,-4.38527,820.02673,821.97613,0.58825,12.96424,0.58400,-0.15933,-9.10672,9.54964,9.39031
45.05799,1.00982,-0.21489,-1.04071,0.31191,0.20745,-0.44318,0.05402,-0.01162,1.79826,-0.00137,0.03974,2.00651,0.43574,0.35143,-0.29349,-0.58400,-4.38527,820.02673,821.97613,0.58825,12.96471,0.58400,-0.15844,-9.10672,9.54964,9.39119
45.05899,1.00982,-0.21489,-1.04071,0.31481,0.20197,-0.43949,0.05402,-0.01162,1.79826,-0.00137,0.03974,2.00651,0.43574,0.35143,-0.29349,-0.58400,-4.38606,820.10046,804.29919,0.58828,12.96518,0.58400,-0.15764,-9.14803,9.54964,9.39199
45.06000,1.00982,-0.21489,-1.04071,0.31481,0.20197,-0.43949,0.05402,-0.01162,1.79826,-0.00137,0.03974,2.00651,0.43574,0.35143,-0.29349,-0.58400,-4.38606,820.10046,804.29919,0.58828,12.96564,0.58400,-0.15684,-9.14803,9.54964,9.39280
45.06100,1.00982,-0.21489,-1.04071,0.32306,0.20040,-0.43362,0.05402,-0.01162,1.79826,-0.00137,0.03974,2.00651,0.43574,0.35143,-0.29349,-0.58400,-4.38684,820.17358,804.29919,0.58830,12.96610,0.58400,-0.15596,-9.11317,9.54964,9.39367
45.06200,1.00982,-0.21489,-1.04071,0.32306,0.20040,-0.43362,0.05402,-0.01162,1.79826,-0.00137,0.03974,2.00651,0.43574,0.35143,-0.29349,-0.58400,-4.38684,820.17358,802.86035,0.58830,12.96656,0.58400,-0.15509,-9.11317,9.54964,9.39454
45.06299,1.00982,-0.21489,-1.04071,0.32702,0.19969,-0.42211,0.05402,-0.01162,1.79826,-0.00137,0.03974,2.00651,0.43574,0.35143,-0.29349,-0.58400,-4.38770,820.25378,804.29919,0.58833,12.96701,0.58400,-0.15412,-9.06739,9.54964,9.39551
45.06399,1.00982,-0.21489,-1.04071,0.32702,0.19969,-0.42211,0.05402,-0.01162,1.79826,-0.00137,0.03974,2.00651,0.43574,0.35143,-0.29349,-0.58400,-4.38770,820.25378,804.29919,0.58833,12.96747,0.58400,-0.15316,-9.06739,9.54964,9.39647
45.06499,1.00982,-0.21489,-1.04071,0.32802,0.19221,-0.41074,0.05402,-0.01162,1.79826,-0.00137,0.03974,2.00651,0.43574,0.35143,-0.29349,-0.58400,-4.38852,820.33093,804.29919,0.58836,12.96792,0.58400,-0.15236,-9.14845,9.54964,9.39727
45.06600,1.00982,-0.21489,-1.04071,0.32802,0.19221,-0.41074,0.05402,-0.01162,1.79826,-0.00137,0.03974,2.00651,0.43574,0.35143,-0.29349,-0.58400,-4.38852,820.33093,815.25689,0.58836,12.96836,0.57770,-0.15156,-9.14845,9.54964,9.39808
45.06700,0.84912,-0.44258,-1.01761,0.33384,0.18373,-0.40446,0.04840,-0.02374,1.79826,0.00193,0.04200,2.00214,0.42630,0.37173,-0.29349,-0.57770,-4.43067,824.26013,815.25689,0.59181,12.96881,0.57770,-0.15080,-9.25817,9.63831,9.48751
45.06800,0.84912,-0.44258,-1.01761,0.33384,0.18373,-0.40446,0.04840,-0.02374,1.79826,0.00193,0.04200,2.00214,0.42630,0.37173,-0.29349,-0.57770,-4.43067,824.26013,809.37591,0.59181,12.96926,0.57770,-0.15004,-9.25817,9.63831,9.48827
45.06900,0.84912,-0.44258,-1.01761,0.34026,0.18382,-0.39874,0.04840,-0.02374,1.79826,0.00193,0.04200,2.00214,0.42630,0.37173,-0.29349,-0.57770,-4.43140,824.32818,815.25689,0.59183,12.96970,0.57770,-0.14923,-9.23523,9.63831,9.48908
45.06999,0.84912,-0.44258,-1.01761,0.34026,0.18382,-0.39874,0.04840,-0.02374,1.79826,0.00193,0.04200,2.00214,0.42630,0.37173,-0.29349,-0.57770,-4.43140,824.32818,815.25689,0.59183,12.97013,0.57770,-0.14842,-9.23523,9.63831,9.48988
45.07099,0.84912,-0.44258,-1.01761,0.33949,0.18680,-0.38946,0.04840,-0.02374,1.79826,0.00193,0.04200,2.00214,0.42630,0.37173,-0.29349,-0.57770,-4.43221,824.40350,815.25689,0.59186,12.97057,0.57770,-0.14750,-9.17482,9.63831,9.49081
45.07199,0.84912,-0.44258,-1.01761,0.33949,0.18680,-0.38946,0.04840,-0.02374,1.79826,0.00193,0.04200,2.00214,0.42630,0.37173,-0.29349,-0.57770,-4.43221,824.40350,815.25689,0.59186,12.97100,0.57770,-0.14657,-9.17482,9.63831,9.49174
45.07300,0.84912,-0.44258,-1.01761,0.33792,0.18263,-0.38036,0.04840,-0.02374,1.79826,0.00193,0.04200,2.00214,0.42630,0.37173,-0.29349,-0.57770,-4.43303,824.48040,815.25689,0.59189,12.97143,0.57770,-0.14572,-9.21568,9.63831,9.49258
45.07400,0.84912,-0.44258,-1.01761,0.33792,0.18263,-0.38036,0.04840,-0.02374,1.79826,0.00193,0.04200,2.00214,0.42630,0.37173,-0.29349,-0.57770,-4.43303,824.48040,815.25689,0.59189,12.97185,0.57770,-0.14488,-9.21568,9.63831,9.49343
45.07500,0.84912,-0.44258,-1.01761,0.34480,0.17589,-0.37316,0.04840,-0.02374,1.79826,0.00193,0.04200,2.00214,0.42630,0.37173,-0.29349,-0.57770,-4.43379,824.55047,810.83819,0.59191,12.97227,0.57770,-0.14411,-9.25485,9.63831,9.49420
45.07600,0.84912,-0.44258,-1.01761,0.34480,0.17589,-0.37316,0.04840,-0.02374,1.79826,0.00193,0.04200,2.00214,0.42630,0.37173,-0.29349,-0.57770,-4.43379,824.55047,810.83819,0.59191,12.97269,0.57770,-0.14334,-9.25485,9.63831,9.49496
45.07699,0.84888,-0.19820,-0.99769,0.35398,0.17444,-0.36213,0.04752,-0.01584,1.79826,0.00545,0.04406,1.99821,0.42630,0.37173,-0.29349,-0.57770,-4.43366,824.53894,810.83819,0.59186,12.97311,0.57770,-0.14247,-9.19680,9.63640,9.49393
45.07799,0.84888,-0.19820,-0.99769,0.35398,0.17444,-0.36213,0.04752,-0.01584,1.79826,0.00545,0.04406,1.99821,0.42630,0.37173,-0.29349,-0.57770,-4.43366,824.53894,809.37591,0.59186,12.97352,0.57770,-0.14159,-9.19680,9.63640,9.49481
45.07899,0.84888,-0.19820,-0.99769,0.35634,0.17274,-0.34542,0.04752,-0.01584,1.79826,0.00545,0.04406,1.99821,0.42630,0.37173,-0.29349,-0.57770,-4.43450,824.61676,810.83819,0.59190,12.97393,0.57770,-0.14067,-9.18012,9.63640,9.49572
45.08000,0.84888,-0.19820,-0.99769,0.35634,0.17274,-0.34542,0.04752,-0.01584,1.79826,0.00545,0.04406,1.99821,0.42630,0.37173,-0.29349,-0.57770,-4.43450,824.61676,810.83819,0.59190,12.97434,0.57770,-0.13976,-9.18012,9.63640,9.49664
45.08100,0.84888,-0.19820,-0.99769,0.35715,0.16506,-0.32992,0.04752,-0.01584,1.79826,0.00545,0.04406,1.99821,0.42630,0.37173,-0.29349,-0.57770,-4.43525,824.68640,810.83819,0.59192,12.97475,0.57770,-0.13907,-9.29122,9.63640,9.49733
45.08200,0.84888,-0.19820,-0.99769,0.35715,0.16506,-0.32992,0.04752,-0.01584,1.79826,0.00545,0.04406,1.99821,0.42630,0.37173,-0.29349,-0.57770,-4.43525,824.68640,813.04156,0.59192,12.97516,0.57770,-0.13838,-9.29122,9.63640,9.49802
45.08300,0.84888,-0.19820,-0.99769,0.36330,0.15967,-0.31868,0.04752,-0.01584,1.79826,0.00545,0.04406,1.99821,0.42630,0.37173,-0.29349,-0.57770,-4.43582,824.73937,813.04156,0.59193,12.97556,0.57770,-0.13785,-9.37117,9.63640,9.49855
45.08399,0.84888,-0.19820,-0.99769,0.36330,0.15967,-0.31868,0.04752,-0.01584,1.79826,0.00545,0.04406,1.99821,0.42630,0.37173,-0.29349,-0.57770,-4.43582,824.73937,815.99810,0.59193,12.97596,0.57770,-0.13732,-9.37117,9.63640,9.49908
45.08499,0.84888,-0.19820,-0.99769,0.36846,0.16273,-0.30633,0.04752,-0.01584,1.79826,0.00545,0.04406,1.99821,0.42630,0.37173,-0.29349,-0.57770,-4.43636,824.79010,815.99810,0.59194,12.97636,0.57770,-0.13668,-9.31657,9.63640,9.49972
45.08599,0.84888,-0.19820,-0.99769,0.36846,0.16273,-0.30633,0.04752,-0.01584,1.79826,0.00545,0.04406,1.99821,0.42630,0.37173,-0.29349,-0.57770,-4.43636,824.79010,817.48443,0.59194,12.97676,0.57119,-0.13604,-9.31658,9.63640,9.50036
45.08700,0.88996,-0.33646,-0.97912,0.36723,0.16500,-0.29107,0.04974,-0.02072,1.79826,0.00926,0.04596,1.99491,0.41655,0.38513,-0.29349,-0.57119,-4.47044,827.95196,817.48443,0.59471,12.97715,0.57119,-0.13515,-9.26196,9.70784,9.57269
45.08800,0.88996,-0.33646,-0.97912,0.36723,0.16500,-0.29107,0.04974,-0.02072,1.79826,0.00926,0.04596,1.99491,0.41655,0.38513,-0.29349,-0.57119,-4.47044,827.95196,817.48443,0.59471,12.97754,0.57119,-0.13426,-9.26196,9.70784,9.57358
45.08900,0.88996,-0.33646,-0.97912,0.36745,0.15962,-0.27788,0.04974,-0.02072,1.79826,0.00926,0.04596,1.99491,0.41655,0.38513,-0.29349,-0.57119,-4.47124,828.02612,817.48443,0.59474,12.97793,0.57119,-0.13343,-9.29566,9.70784,9.57441
45.09000,0.88996,-0.33646,-0.97912,0.36745,0.15962,-0.27788,0.04974,-0.02072,1.79826,0.00926,0.04596,1.99491,0.41655,0.38513,-0.29349,-0.57119,-4.47124,828.02612,818.22955,0.59474,12.97832,0.57119,-0.13261,-9.29566,9.70784,9.57523
45.09099,0.88996,-0.33646,-0.97912,0.37404,0.15419,-0.26711,0.04974,-0.02072,1.79826,0.00926,0.04596,1.99491,0.41655,0.38513,-0.29349,-0.57119,-4.47201,828.09710,818.22955,0.59477,12.97870,0.57119,-0.13179,-9.29915,9.70784,9.57605
45.09199,0.88996,-0.33646,-0.97912,0.37404,0.15419,-0.26711,0.04974,-0.02072,1.79826,0.00926,0.04596,1.99491,0.41655,0.38513,-0.29349,-0.57119,-4.47201,828.09710,818.22955,0.59477,12.97908,0.57119,-0.13097,-9.29915,9.70784,9.57686
45.09299,0.88996,-0.33646,-0.97912,0.37899,0.15306,-0.25370,0.04974,-0.02072,1.79826,0.00926,0.04596,1.99491,0.41655,0.38513,-0.29349,-0.57119,-4.47284,828.17425,818.22955,0.59481,12.97946,0.57119,-0.13001,-9.22409,9.70784,9.57783
45.09400,0.88996,-0.33646,-0.97912,0.37899,0.15306,-0.25370,0.04974,-0.02072,1.79826,0.00926,0.04596,1.99491,0.41655,0.38513,-0.29349,-0.57119,-4.47284,828.17425,816.74053,0.59481,12.97983,0.57119,-0.12904,-9.22409,9.70784,9.57880
45.09500,0.88996,-0.33646,-0.97912,0.37871,0.14858,-0.23884,0.04974,-0.02072,1.79826,0.00926,0.04596,1.99491,0.41655,0.38513,-0.29349,-0.57119,-4.47374,828.25756,816.74053,0.59484,12.98021,0.57119,-0.12808,-9.22894,9.70784,9.57976
45.09600,0.88996,-0.33646,-0.97912,0.37871,0.14858,-0.23884,0.04974,-0.02072,1.79826,0.00926,0.04596,1.99491,0.41655,0.38513,-0.29349,-0.57119,-4.47374,828.25756,828.04235,0.59484,12.98058,0.57119,-0.12712,-9.22894,9.70784,9.58071
45.09700,0.82977,-0.22512,-0.96627,0.38123,0.13981,-0.22863,0.04836,-0.01571,1.79826,0.01322,0.04775,1.99232,0.41655,0.38513,-0.29349,-0.57119,-4.47379,828.26208,818.97613,0.59481,12.98095,0.57119,-0.12643,-9.36222,9.70630,9.57986
45.09799,0.82977,-0.22512,-0.96627,0.38123,0.13981,-0.22863,0.04836,-0.01571,1.79826,0.01322,0.04775,1.99232,0.41655,0.38513,-0.29349,-0.57119,-4.47379,828.26208,816.74053,0.59481,12.98132,0.57119,-0.12575,-9.36222,9.70630,9.58055
45.09899,0.82977,-0.22512,-0.96627,0.38780,0.13726,-0.22180,0.04836,-0.01571,1.79826,0.01322,0.04775,1.99232,0.41655,0.38513,-0.29349,-0.57119,-4.47436,828.31463,818.97613,0.59483,12.98168,0.57119,-0.12522,-9.44280,9.70630,9.58108
45.09999,0.82977,-0.22512,-0.96627,0.38780,0.13726,-0.22180,0.04836,-0.01571,1.79826,0.01322,0.04775,1.99232,0.41655,0.38513,-0.29349,-0.57119,-4.47436,828.31463,818.97613,0.59483,12.98204,0.57119,-0.12469,-9.44280,9.70630,9.58160
45.10100,0.82977,-0.22512,-0.96627,0.38894,0.14175,-0.21251,0.04836,-0.01571,1.79826,0.01322,0.04775,1.99232,0.41655,0.38513,-0.29349,-0.57119,-4.47488,828.36297,816.74053,0.59484,12.98240,0.57119,-0.12410,-9.41064,9.70630,9.58220
45.10200,0.82977,-0.22512,-0.96627,0.38894,0.14175,-0.21251,0.04836,-0.01571,1.79826,0.01322,0.04775,1.99232,0.41655,0.38513,-0.29349,-0.57119,-4.47488,828.36297,818.97613,0.59484,12.98276,0.57119,-0.12351,-9.41064,9.70630,9.58279
45.10300,0.82977,-0.22512,-0.96627,0.38447,0.14156,-0.20207,0.04836,-0.01571,1.79826,0.01322,0.04775,1.99232,0.41655,0.38513,-0.29349,-0.57119,-4.47543,828.41333,815.99810,0.59485,12.98312,0.57119,-0.12293,-9.41854,9.70630,9.58336
45.10400,0.82977,-0.22512,-0.96627,0.38447,0.14156,-0.20207,0.04836,-0.01571,1.79826,0.01322,0.04775,1.99232,0.41655,0.38513,-0.29349,-0.57119,-4.47543,828.41333,818.97613,0.59485,12.98347,0.57119,-0.12236,-9.41854,9.70630,9.58394
45.10499,0.82977,-0.22512,-0.96627,0.38518,0.13475,-0.19495,0.04836,-0.01571,1.79826,0.01322,0.04775,1.99232,0.41655,0.38513,-0.29349,-0.57119,-4.47588,828.45568,818.97613,0.59486,12.98382,0.57119,-0.12196,-9.50471,9.70630,9.58434
45.10599,0.82977,-0.22512,-0.96627,0.38518,0.13475,-0.19495,0.04836,-0.01571,1.79826,0.01322,0.04775,1.99232,0.41655,0.38513,-0.29349,-0.57119,-4.47588,828.45568,823.48431,0.59486,12.98417,0.56680,-0.12155,-9.50472,9.70630,9.58474
45.10699,0.88731,-0.41489,-0.95163,0.39157,0.13110,-0.18791,0.05220,-0.02323,1.79826,0.01736,0.04933,1.99024,0.40994,0.39284,-0.29349,-0.56680,-4.49791,830.49194,818.97613,0.59663,12.98451,0.56680,-0.12108,-9.51475,9.75260,9.63151
45.10800,0.88731,-0.41489,-0.95163,0.39157,0.13110,-0.18791,0.05220,-0.02323,1.79826,0.01736,0.04933,1.99024,0.40994,0.39284,-0.29349,-0.56680,-4.49791,830.49194,818.97613,0.59663,12.98486,0.56680,-0.12060,-9.51475,9.75260,9.63199
45.10900,0.88731,-0.41489,-0.95163,0.39376,0.13080,-0.17592,0.05220,-0.02323,1.79826,0.01736,0.04933,1.99024,0.40994,0.39284,-0.29349,-0.56680,-4.49842,830.53839,821.97613,0.59664,12.98519,0.56680,-0.12000,-9.45216,9.75260,9.63259
45.11000,0.88731,-0.41489,-0.95163,0.39376,0.13080,-0.17592,0.05220,-0.02323,1.79826,0.01736,0.04933,1.99024,0.40994,0.39284,-0.29349,-0.56680,-4.49842,830.53839,821.97613,0.59664,12.98552,0.56680,-0.11940,-9.45216,9.75260,9.63319
45.11100,0.88731,-0.41489,-0.95163,0.39216,0.12541,-0.16315,0.05220,-0.02323,1.79826,0.01736,0.04933,1.99024,0.40994,0.39284,-0.29349,-0.56680,-4.49895,830.58746,823.48431,0.59666,12.98585,0.56680,-0.11886,-9.48403,9.75260,9.63373
45.11199,0.88731,-0.41489,-0.95163,0.39216,0.12541,-0.16315,0.05220,-0.02323,1.79826,0.01736,0.04933,1.99024,0.40994,0.39284,-0.29349,-0.56680,-4.49895,830.58746,823.48431,0.59666,12.98618,0.56680,-0.11832,-9.48403,9.75260,9.63427
45.11299,0.88731,-0.41489,-0.95163,0.39507,0.11783,-0.15530,0.05220,-0.02323,1.79826,0.01736,0.04933,1.99024,0.40994,0.39284,-0.29349,-0.56680,-4.49938,830.62695,821.97613,0.59666,12.98649,0.56680,-0.11794,-9.56268,9.75260,9.63465
45.11399,0.88731,-0.41489,-0.95163,0.39507,0.11783,-0.15530,0.05220,-0.02323,1.79826,0.01736,0.04933,1.99024,0.40994,0.39284,-0.29349,-0.56680,-4.49938,830.62695,824.24047,0.59666,12.98681,0.56680,-0.11756,-9.56268,9.75260,9.63503
45.11500,0.88731,-0.41489,-0.95163,0.39909,0.11755,-0.14883,0.05220,-0.02323,1.79826,0.01736,0.04933,1.99024,0.40994,0.39284,-0.29349,-0.56680,-4.49977,830.66351,824.24047,0.59666,12.98712,0.56680,-0.11710,-9.51838,9.75260,9.63549
45.11600,0.88731,-0.41489,-0.95163,0.39909,0.11755,-0.14883,0.05220,-0.02323,1.79826,0.01736,0.04933,1.99024,0.40994,0.39284,-0.29349,-0.56680,-4.49977,830.66351,824.99804,0.59666,12.98743,0.56029,-0.11663,-9.51838,9.75260,9.63596
45.11700,0.84790,-0.49345,-0.93995,0.39541,0.12042,-0.13900,0.05296,-0.02940,1.79826,0.02160,0.05076,1.98859,0.40019,0.39394,-0.29349,-0.56029,-4.51650,832.20574,824.24047,0.59801,12.98773,0.56029,-0.11588,-9.41367,9.78719,9.67131
45.11800,0.84790,-0.49345,-0.93995,0.39541,0.12042,-0.13900,0.05296,-0.02940,1.79826,0.02160,0.05076,1.98859,0.40019,0.39394,-0.29349,-0.56029,-4.51650,832.20574,824.24047,0.59801,12.98803,0.56029,-0.11513,-9.41367,9.78719,9.67205
45.11899,0.84790,-0.49345,-0.93995,0.38921,0.11614,-0.12882,0.05296,-0.02940,1.79826,0.02160,0.05076,1.98859,0.40019,0.39394,-0.29349,-0.56029,-4.51721,832.27117,824.24047,0.59804,12.98832,0.56029,-0.11436,-9.39995,9.78719,9.67283
45.11999,0.84790,-0.49345,-0.93995,0.38921,0.11614,-0.12882,0.05296,-0.02940,1.79826,0.02160,0.05076,1.98859,0.40019,0.39394,-0.29349,-0.56029,-4.51721,832.27117,824.99804,0.59804,12.98861,0.56029,-0.11358,-9.39995,9.78719,9.67360
45.12099,0.84790,-0.49345,-0.93995,0.39088,0.10838,-0.12069,0.05296,-0.02940,1.79826,0.02160,0.05076,1.98859,0.40019,0.39394,-0.29349,-0.56029,-4.51794,832.33831,824.24047,0.59807,12.98890,0.56029,-0.11280,-9.39450,9.78719,9.67439
45.12200,0.84790,-0.49345,-0.93995,0.39088,0.10838,-0.12069,0.05296,-0.02940,1.79826,0.02160,0.05076,1.98859,0.40019,0.39394,-0.29349,-0.56029,-4.51794,832.33831,824.24047,0.59807,12.98918,0.56029,-0.11201,-9.39450,9.78719,9.67517
45.12300,0.84790,-0.49345,-0.93995,0.39650,0.10562,-0.10971,0.05296,-0.02940,1.79826,0.02160,0.05076,1.98859,0.40019,0.39394,-0.29349,-0.56029,-4.51876,832.41375,822.72949,0.59811,12.98946,0.56029,-0.11105,-9.30319,9.78719,9.67614
45.12400,0.84790,-0.49345,-0.93995,0.39650,0.10562,-0.10971,0.05296,-0.02940,1.79826,0.02160,0.05076,1.98859,0.40019,0.39394,-0.29349,-0.56029,-4.51876,832.41375,824.24047,0.59811,12.98973,0.56029,-0.11008,-9.30319,9.78719,9.67711
45.12500,0.84790,-0.49345,-0.93995,0.39702,0.10314,-0.09410,0.05296,-0.02940,1.79826,0.02160,0.05076,1.98859,0.40019,0.39394,-0.29349,-0.56029,-4.51969,832.50018,822.72949,0.59816,12.98999,0.56029,-0.10904,-9.26629,9.78719,9.67815
45.12599,0.84790,-0.49345,-0.93995,0.39702,0.10314,-0.09410,0.05296,-0.02940,1.79826,0.02160,0.05076,1.98859,0.40019,0.39394,-0.29349,-0.56029,-4.51969,832.50018,814.51715,0.59816,12.99025,0.56029,-0.10799,-9.26629,9.78719,9.67919
45.12699,0.76402,-0.30552,-0.93687,0.39589,0.09480,-0.08059,0.05073,-0.02260,1.79826,0.02589,0.05200,1.98742,0.40019,0.39394,-0.29349,-0.56029,-4.51923,832.45758,814.51715,0.59810,12.99051,0.56029,-0.10716,-9.36827,9.78433,9.67716
45.12799,0.76402,-0.30552,-0.93687,0.39589,0.09480,-0.08059,0.05073,-0.02260,1.79826,0.02589,0.05200,1.98742,0.40019,0.39394,-0.29349,-0.56029,-4.51923,832.45758,814.51715,0.59810,12.99075,0.56029,-0.10633,-9.36827,9.78433,9.67799
45.12900,0.76402,-0.30552,-0.93687,0.39867,0.08832,-0.07213,0.05073,-0.02260,1.79826,0.02589,0.05200,1.98742,0.40019,0.39394,-0.29349,-0.56029,-4.51994,832.52258,824.99804,0.59814,12.99100,0.56029,-0.10565,-9.44474,9.78433,9.67867
45.13000,0.76402,-0.30552,-0.93687,0.39867,0.08832,-0.07213,0.05073,-0.02260,1.79826,0.02589,0.05200,1.98742,0.40019,0.39394,-0.29349,-0.56029,-4.51994,832.52258,824.99804,0.59814,12.99123,0.56029,-0.10497,-9.44474,9.78433,9.67935
45.13100,0.76402,-0.30552,-0.93687,0.39922,0.08974,-0.06295,0.05073,-0.02260,1.79826,0.02589,0.05200,1.98742,0.40019,0.39394,-0.29349,-0.56029,-4.52062,832.58569,824.99804,0.59817,12.99146,0.56029,-0.10418,-9.39041,9.78433,9.68014
45.13199,0.76402,-0.30552,-0.93687,0.39922,0.08974,-0.06295,0.05073,-0.02260,1.79826,0.02589,0.05200,1.98742,0.40019,0.39394,-0.29349,-0.56029,-4.52062,832.58569,824.99804,0.59817,12.99169,0.56029,-0.10340,-9.39041,9.78433,9.68093
45.13299,0.76402,-0.30552,-0.93687,0.39324,0.08960,-0.05057,0.05073,-0.02260,1.79826,0.02589,0.05200,1.98742,0.40019,0.39394,-0.29349,-0.56029,-4.52139,832.65679,826.51739,0.59821,12.99191,0.56029,-0.10253,-9.35166,9.78433,9.68179
45.13399,0.76402,-0.30552,-0.93687,0.39324,0.08960,-0.05057,0.05073,-0.02260,1.79826,0.02589,0.05200,1.98742,0.40019,0.39394,-0.29349,-0.56029,-4.52139,832.65679,826.51739,0.59821,12.99212,0.56029,-0.10167,-9.35166,9.78433,9.68266
45.13499,0.76402,-0.30552,-0.93687,0.38943,0.08137,-0.03934,0.05073,-0.02260,1.79826,0.02589,0.05200,1.98742,0.40019,0.39394,-0.29349,-0.56029,-4.52215,832.72644,827.27917,0.59826,12.99233,0.56029,-0.10091,-9.40689,9.78433,9.68341
45.13600,0.76402,-0.30552,-0.93687,0.38943,0.08137,-0.03934,0.05073,-0.02260,1.79826,0.02589,0.05200,1.98742,0.40019,0.39394,-0.29349,-0.56029,-4.52215,832.72644,827.27917,0.59826,12.99254,0.55340,-0.10016,-9.40689,9.78433,9.68417
45.13700,0.63093,-0.46142,-0.92800,0.39307,0.07390,-0.02912,0.04437,-0.02842,1.79826,0.03022,0.05297,1.98683,0.38985,0.40741,-0.29349,-0.55340,-4.55563,835.80279,829.57287,0.60097,12.99274,0.55340,-0.09927,-9.40974,9.85436,9.75509
45.13800,0.63093,-0.46142,-0.92800,0.39307,0.07390,-0.02912,0.04437,-0.02842,1.79826,0.03022,0.05297,1.98683,0.38985,0.40741,-0.29349,-0.55340,-4.55563,835.80279,827.27917,0.60097,12.99293,0.55340,-0.09838,-9.40974,9.85436,9.75598
45.13899,0.63093,-0.46142,-0.92800,0.39630,0.07182,-0.01452,0.04437,-0.02842,1.79826,0.03022,0.05297,1.98683,0.38985,0.40741,-0.29349,-0.55340,-4.55655,835.88739,827.27917,0.60103,12.99312,0.55340,-0.09729,-9.31153,9.85436,9.75707
45.13999,0.63093,-0.46142,-0.92800,0.39630,0.07182,-0.01452,0.04437,-0.02842,1.79826,0.03022,0.05297,1.98683,0.38985,0.40741,-0.29349,-0.55340,-4.55655,835.88739,826.51739,0.60103,12.99330,0.55340,-0.09621,-9.31153,9.85436,9.75815
45.14099,0.63093,-0.46142,-0.92800,0.39515,0.06660,0.00282,0.04437,-0.02842,1.79826,0.03022,0.05297,1.98683,0.38985,0.40741,-0.29349,-0.55340,-4.55759,835.98327,827.27917,0.60109,12.99348,0.55340,-0.09505,-9.27739,9.85436,9.75931
45.14199,0.63093,-0.46142,-0.92800,0.39515,0.06660,0.00282,0.04437,-0.02842,1.79826,0.03022,0.05297,1.98683,0.38985,0.40741,-0.29349,-0.55340,-4.55759,835.98327,829.57287,0.60109,12.99366,0.55340,-0.09390,-9.27739,9.85436,9.76046
45.14300,0.63093,-0.46142,-0.92800,0.39611,0.05641,0.01571,0.04437,-0.02842,1.79826,0.03022,0.05297,1.98683,0.38985,0.40741,-0.29349,-0.55340,-4.55858,836.07409,831.10913,0.60116,12.99382,0.55340,-0.09293,-9.37129,9.85436,9.76143
45.14400,0.63093,-0.46142,-0.92800,0.39611,0.05641,0.01571,0.04437,-0.02842,1.79826,0.03022,0.05297,1.98683,0.38985,0.40741,-0.29349,-0.55340,-4.55858,836.07409,831.10913,0.60116,12.99398,0.55340,-0.09197,-9.37129,9.85436,9.76239
45.14500,0.63093,-0.46142,-0.92800,0.39884,0.05109,0.02452,0.04437,-0.02842,1.79826,0.03022,0.05297,1.98683,0.38985,0.40741,-0.29349,-0.55340,-4.55941,836.15032,829.57287,0.60121,12.99414,0.55340,-0.09115,-9.44723,9.85436,9.76321
45.14599,0.63093,-0.46142,-0.92800,0.39884,0.05109,0.02452,0.04437,-0.02842,1.79826,0.03022,0.05297,1.98683,0.38985,0.40741,-0.29349,-0.55340,-4.55941,836.15032,836.53112,0.60121,12.99428,0.54640,-0.09034,-9.44724,9.85436,9.76402
45.14699,0.67198,-0.60058,-0.92154,0.39461,0.05139,0.03546,0.04478,-0.03720,1.79826,0.03464,0.05367,1.98690,0.37934,0.41825,-0.29349,-0.54640,-4.59159,839.09509,836.53112,0.60381,12.99442,0.54640,-0.08940,-9.45398,9.92150,9.83209
45.14799,0.67198,-0.60058,-0.92154,0.39461,0.05139,0.03546,0.04478,-0.03720,1.79826,0.03464,0.05367,1.98690,0.37934,0.41825,-0.29349,-0.54640,-4.59159,839.09509,836.53112,0.60381,12.99456,0.54640,-0.08847,-9.45398,9.92150,9.83303
45.14899,0.67198,-0.60058,-0.92154,0.38557,0.04728,0.04849,0.04478,-0.03720,1.79826,0.03464,0.05367,1.98690,0.37934,0.41825,-0.29349,-0.54640,-4.59241,839.17028,836.53112,0.60387,12.99468,0.54640,-0.08764,-9.50757,9.92150,9.83386
45.15000,0.67198,-0.60058,-0.92154,0.38557,0.04728,0.04849,0.04478,-0.03720,1.79826,0.03464,0.05367,1.98690,0.37934,0.41825,-0.29349,-0.54640,-4.59241,839.17028,836.53112,0.60387,12.99481,0.54640,-0.08681,-9.50757,9.92150,9.83469
45.15100,0.67198,-0.60058,-0.92154,0.38287,0.03864,0.06052,0.04478,-0.03720,1.79826,0.03464,0.05367,1.98690,0.37934,0.41825,-0.29349,-0.54640,-4.59309,839.23278,836.53112,0.60391,12.99492,0.54640,-0.08617,-9.60311,9.92150,9.83532
45.15200,0.67198,-0.60058,-0.92154,0.38287,0.03864,0.06052,0.04478,-0.03720,1.79826,0.03464,0.05367,1.98690,0.37934,0.41825,-0.29349,-0.54640,-4.59309,839.23278,834.19879,0.60391,12.99503,0.54640,-0.08554,-9.60311,9.92150,9.83596
45.15299,0.67198,-0.60058,-0.92154,0.38575,0.03417,0.07477,0.04478,-0.03720,1.79826,0.03464,0.05367,1.98690,0.37934,0.41825,-0.29349,-0.54640,-4.59369,839.28692,833.42425,0.60395,12.99513,0.54640,-0.08491,-9.60529,9.92150,9.83659
45.15399,0.67198,-0.60058,-0.92154,0.38575,0.03417,0.07477,0.04478,-0.03720,1.79826,0.03464,0.05367,1.98690,0.37934,0.41825,-0.29349,-0.54640,-4.59369,839.28692,829.57287,0.60395,12.99522,0.54640,-0.08427,-9.60529,9.92150,9.83722
45.15499,0.67198,-0.60058,-0.92154,0.38479,0.03162,0.09419,0.04478,-0.03720,1.79826,0.03464,0.05367,1.98690,0.37934,0.41825,-0.29349,-0.54640,-4.59432,839.34454,829.57287,0.60399,12.99531,0.54640,-0.08356,-9.56263,9.92150,9.83794
45.15599,0.67198,-0.60058,-0.92154,0.38479,0.03162,0.09419,0.04478,-0.03720,1.79826,0.03464,0.05367,1.98690,0.37934,0.41825,-0.29349,-0.54640,-4.59432,839.34454,829.57287,0.60399,12.99539,0.53920,-0.08284,-9.56263,9.92150,9.83866
45.15700,0.59770,-0.57413,-0.92355,0.38180,0.02291,0.11317,0.04132,-0.03999,1.79826,0.03897,0.05409,1.98759,0.36855,0.42511,-0.29349,-0.53920,-4.61958,841.64910,828.80694,0.60603,12.99546,0.53920,-0.08213,-9.61989,9.97417,9.89204
45.15800,0.59770,-0.57413,-0.92355,0.38180,0.02291,0.11317,0.04132,-0.03999,1.79826,0.03897,0.05409,1.98759,0.36855,0.42511,-0.29349,-0.53920,-4.61958,841.64910,828.04235,0.60603,12.99553,0.53920,-0.08142,-9.61989,9.97417,9.89275
45.15900,0.59770,-0.57413,-0.92355,0.38412,0.01303,0.12702,0.04132,-0.03999,1.79826,0.03897,0.05409,1.98759,0.36855,0.42511,-0.29349,-0.53920,-4.62018,841.70416,825.75701,0.60607,12.99559,0.53920,-0.08083,-9.68125,9.97417,9.89333
45.15999,0.59770,-0.57413,-0.92355,0.38412,0.01303,0.12702,0.04132,-0.03999,1.79826,0.03897,0.05409,1.98759,0.36855,0.42511,-0.29349,-0.53920,-4.62018,841.70416,828.04235,0.60607,12.99565,0.53920,-0.08025,-9.68125,9.97417,9.89392
45.16099,0.59770,-0.57413,-0.92355,0.38702,0.01088,0.13995,0.04132,-0.03999,1.79826,0.03897,0.05409,1.98759,0.36855,0.42511,-0.29349,-0.53920,-4.62081,841.76068,828.04235,0.60612,12.99570,0.53920,-0.07951,-9.60308,9.97417,9.89466
45.16199,0.59770,-0.57413,-0.92355,0.38702,0.01088,0.13995,0.04132,-0.03999,1.79826,0.03897,0.05409,1.98759,0.36855,0.42511,-0.29349,-0.53920,-4.62081,841.76068,828.04235,0.60612,12.99574,0.53920,-0.07876,-9.60308,9.97417,9.89540
45.16299,0.59770,-0.57413,-0.92355,0.38311,0.01044,0.15502,0.04132,-0.03999,1.79826,0.03897,0.05409,1.98759,0.36855,0.42511,-0.29349,-0.53920,-4.62159,841.83203,828.04235,0.60618,12.99578,0.53920,-0.07783,-9.50644,9.97417,9.89634
45.16400,0.59770,-0.57413,-0.92355,0.38311,0.01044,0.15502,0.04132,-0.03999,1.79826,0.03897,0.05409,1.98759,0.36855,0.42511,-0.29349,-0.53920,-4.62159,841.83203,828.80694,0.60618,12.99582,0.53920,-0.07689,-9.50644,9.97417,9.89728
45.16500,0.59770,-0.57413,-0.92355,0.37824,0.00277,0.16801,0.04132,-0.03999,1.79826,0.03897,0.05409,1.98759,0.36855,0.42511,-0.29349,-0.53920,-4.62245,841.91052,828.04235,0.60625,12.99584,0.53920,-0.07598,-9.51898,9.97417,9.89819
45.16600,0.59770,-0.57413,-0.92355,0.37824,0.00277,0.16801,0.04132,-0.03999,1.79826,0.03897,0.05409,1.98759,0.36855,0.42511,-0.29349,-0.53920,-4.62245,841.91052,828.80694,0.60625,12.99587,0.53920,-0.07507,-9.51893,9.97417,9.89910
45.16699,0.64985,-0.37540,-0.93732,0.37908,-0.00619,0.17780,0.04356,-0.03205,1.79826,0.04338,0.05418,1.98909,0.36855,0.42511,-0.29349,-0.53920,-4.62243,841.90844,828.04235,0.60624,12.99589,0.53920,-0.07413,-9.50064,9.97227,9.89814
45.16799,0.64985,-0.37540,-0.93732,0.37908,-0.00619,0.17780,0.04356,-0.03205,1.79826,0.04338,0.05418,1.98909,0.36855,0.42511,-0.29349,-0.53920,-4.62243,841.90844,828.80694,0.60624,12.99590,0.53920,-0.07319,-9.50064,9.97227,9.89908
45.16899,0.64985,-0.37540,-0.93732,0.37933,-0.00963,0.18998,0.04356,-0.03205,1.79826,0.04338,0.05418,1.98909,0.36855,0.42511,-0.29349,-0.53920,-4.62344,842.00036,828.80694,0.60632,12.99590,0.53920,-0.07197,-9.36416,9.97227,9.90030
45.16999,0.64985,-0.37540,-0.93732,0.37933,-0.00963,0.18998,0.04356,-0.03205,1.79826,0.04338,0.05418,1.98909,0.36855,0.42511,-0.29349,-0.53920,-4.62344,842.00036,828.80694,0.60632,12.99590,0.53920,-0.07075,-9.36416,9.97227,9.90151
45.17100,0.64985,-0.37540,-0.93732,0.37430,-0.01440,0.20477,0.04356,-0.03205,1.79826,0.04338,0.05418,1.98909,0.36855,0.42511,-0.29349,-0.53920,-4.62464,842.11010,828.80694,0.60642,12.99589,0.53920,-0.06939,-9.28952,9.97227,9.90288
45.17200,0.64985,-0.37540,-0.93732,0.37430,-0.01440,0.20477,0.04356,-0.03205,1.79826,0.04338,0.05418,1.98909,0.36855,0.42511,-0.29349,-0.53920,-4.62464,842.11010,828.80694,0.60642,12.99588,0.53920,-0.06802,-9.28952,9.97227,9.90425
45.17300,0.64985,-0.37540,-0.93732,0.37117,-0.02494,0.21555,0.04356,-0.03205,1.79826,0.04338,0.05418,1.98909,0.36855,0.42511,-0.29349,-0.53920,-4.62585,842.21978,828.80694,0.60652,12.99586,0.53920,-0.06681,-9.36509,9.97227,9.90546
45.17399,0.64985,-0.37540,-0.93732,0.37117,-0.02494,0.21555,0.04356,-0.03205,1.79826,0.04338,0.05418,1.98909,0.36855,0.42511,-0.29349,-0.53920,-4.62585,842.21978,828.80694,0.60652,12.99584,0.53920,-0.06559,-9.36509,9.97227,9.90667
45.17499,0.64985,-0.37540,-0.93732,0.37206,-0.03213,0.22212,0.04356,-0.03205,1.79826,0.04338,0.05418,1.98909,0.36855,0.42511,-0.29349,-0.53920,-4.62692,842.31787,828.80694,0.60661,12.99581,0.53920,-0.06450,-9.42584,9.97227,9.90777
45.17599,0.64985,-0.37540,-0.93732,0.37206,-0.03213,0.22212,0.04356,-0.03205,1.79826,0.04338,0.05418,1.98909,0.36855,0.42511,-0.29349,-0.53920,-4.62692,842.31787,828.80694,0.60661,12.99578,0.53460,-0.06341,-9.42584,9.97227,9.90886
45.17699,0.60535,-0.51609,-0.93955,0.36785,-0.03212,0.23104,0.04295,-0.03662,1.79826,0.04772,0.05393,1.99117,0.36165,0.42161,-0.29349,-0.53460,-4.63336,842.90368,828.80694,0.60713,12.99574,0.53460,-0.06223,-9.39343,9.98379,9.92155
45.17800,0.60535,-0.51609,-0.93955,0.36785,-0.03212,0.23104,0.04295,-0.03662,1.79826,0.04772,0.05393,1.99117,0.36165,0.42161,-0.29349,-0.53460,-4.63336,842.90368,828.80694,0.60713,12.99570,0.53460,-0.06105,-9.39343,9.98379,9.92273
45.17900,0.60535,-0.51609,-0.93955,0.35779,-0.03503,0.24308,0.04295,-0.03662,1.79826,0.04772,0.05393,1.99117,0.36165,0.42161,-0.29349,-0.53460,-4.63445,843.00292,834.19879,0.60722,12.99565,0.53460,-0.05989,-9.40627,9.98379,9.92389
45.18000,0.60535,-0.51609,-0.93955,0.35779,-0.03503,0.24308,0.04295,-0.03662,1.79826,0.04772,0.05393,1.99117,0.36165,0.42161,-0.29349,-0.53460,-4.63445,843.00292,836.53112,0.60722,12.99560,0.53460,-0.05874,-9.40627,9.98379,9.92504
45.18099,0.60535,-0.51609,-0.93955,0.35288,-0.04455,0.25439,0.04295,-0.03662,1.79826,0.04772,0.05393,1.99117,0.36165,0.42161,-0.29349,-0.53460,-4.63543,843.09167,836.53112,0.60731,12.99554,0.53460,-0.05780,-9.51645,9.98379,9.92598
45.18199,0.60535,-0.51609,-0.93955,0.35288,-0.04455,0.25439,0.04295,-0.03662,1.79826,0.04772,0.05393,1.99117,0.36165,0.42161,-0.29349,-0.53460,-4.63543,843.09167,836.53112,0.60731,12.99548,0.53460,-0.05687,-9.51645,9.98379,9.92691
45.18299,0.60535,-0.51609,-0.93955,0.35469,-0.05194,0.26723,0.04295,-0.03662,1.79826,0.04772,0.05393,1.99117,0.36165,0.42161,-0.29349,-0.53460,-4.63624,843.16552,836.53112,0.60738,12.99541,0.53460,-0.05606,-9.58179,9.98379,9.92772
45.18399,0.60535,-0.51609,-0.93955,0.35469,-0.05194,0.26723,0.04295,-0.03662,1.79826,0.04772,0.05393,1.99117,0.36165,0.42161,-0.29349,-0.53460,-4.63624,843.16552,836.53112,0.60738,12.99534,0.53460,-0.05526,-9.58179,9.98379,9.92852
45.18500,0.60535,-0.51609,-0.93955,0.35403,-0.05600,0.28529,0.04295,-0.03662,1.79826,0.04772,0.05393,1.99117,0.36165,0.42161,-0.29349,-0.53460,-4.63700,843.23413,830.34033,0.60745,12.99526,0.53460,-0.05445,-9.57787,9.98379,9.92933
