time,target gyro x,target gyro y,target gyro z,gyro x,gyro y,gyro z,target angle x,target angle y,target angle z,angle x,angle y,angle z,target vel z,vel z,target pos z,pos z,desire thrust,desire rotor speed,rotor speed,motor_output,bettery voltage,height,thrust,K_T,acc_z_d,acc_z_com
87.35299,0.85090,0.34468,0.78836,-0.10325,-0.08418,0.13417,0.04150,-0.03058,2.23818,0.03133,-0.06303,2.07811,0.01935,-0.03533,-0.65019,-0.66310,-4.40092,821.44738,825.75701,0.54897,13.92190,0.66310,-0.13076,6.52205,9.55459,9.42382
87.35399,0.85090,0.34468,0.78836,-0.10325,-0.08418,0.13417,0.04150,-0.03058,2.23818,0.03133,-0.06303,2.07811,0.01935,-0.03533,-0.65019,-0.66310,-4.40092,821.44738,825.75701,0.54897,13.92214,0.66310,-0.13109,6.52205,9.55459,9.42349
87.35500,0.85090,0.34468,0.78836,-0.09307,-0.08173,0.13334,0.04150,-0.03058,2.23818,0.03133,-0.06303,2.07811,0.01935,-0.03533,-0.65019,-0.66310,-4.40062,821.41906,825.75701,0.54892,13.92238,0.66310,-0.13141,6.52205,9.55459,9.42317
87.35600,0.85090,0.34468,0.78836,-0.09307,-0.08173,0.13334,0.04150,-0.03058,2.23818,0.03133,-0.06303,2.07811,0.01935,-0.03533,-0.65019,-0.66310,-4.40062,821.41906,825.75701,0.54892,13.92261,0.66310,-0.13161,6.52205,9.55459,9.42297
87.35700,0.85090,0.34468,0.78836,-0.08649,-0.07782,0.13410,0.04150,-0.03058,2.23818,0.03133,-0.06303,2.07811,0.01935,-0.03533,-0.65019,-0.66310,-4.40043,821.40209,825.75701,0.54889,13.92286,0.66310,-0.13180,6.52205,9.55459,9.42278
87.35800,0.85090,0.34468,0.78836,-0.08649,-0.07782,0.13410,0.04150,-0.03058,2.23818,0.03133,-0.06303,2.07811,0.01935,-0.03533,-0.65019,-0.66310,-4.40043,821.40209,825.75701,0.54889,13.92310,0.66310,-0.13200,6.52205,9.55459,9.42258
87.35900,0.85090,0.34468,0.78836,-0.08586,-0.07774,0.13591,0.04150,-0.03058,2.23818,0.03133,-0.06303,2.07811,0.01935,-0.03533,-0.65019,-0.66310,-4.40025,821.38488,825.75701,0.54886,13.92334,0.66310,-0.13220,6.52205,9.55459,9.42238
87.36000,0.85090,0.34468,0.78836,-0.08586,-0.07774,0.13591,0.04150,-0.03058,2.23818,0.03133,-0.06303,2.07811,0.01935,-0.03533,-0.65019,-0.66310,-4.40025,821.38488,825.75701,0.54886,13.92359,0.66310,-0.13240,6.52205,9.55459,9.42218
87.36100,0.85090,0.34468,0.78836,-0.07902,-0.07798,0.13675,0.04150,-0.03058,2.23818,0.03133,-0.06303,2.07811,0.01935,-0.03533,-0.65019,-0.66310,-4.40006,821.36743,826.51739,0.54882,13.92384,0.66370,-0.13261,6.52204,9.55459,9.42198
87.36199,0.85090,0.34468,0.78836,-0.07902,-0.07798,0.13675,0.04150,-0.03058,2.23818,0.03133,-0.06303,2.07811,0.01935,-0.03533,-0.65019,-0.66310,-4.40006,821.36743,828.04235,0.54882,13.92409,0.66370,-0.13264,6.52204,9.55459,9.42194
87.36299,-1.57079,1.57079,0.63714,-0.06818,-0.07295,0.13825,-0.18327,0.22180,2.23818,0.03042,-0.06408,2.07952,0.54524,-0.03401,-0.30019,-0.66370,-3.43254,725.46392,826.51739,0.46937,13.92434,0.66370,-0.13682,6.52204,7.48701,7.35019
87.36399,-1.57079,1.57079,0.63714,-0.06818,-0.07295,0.13825,-0.18327,0.22180,2.23818,0.03042,-0.06408,2.07952,0.54524,-0.03401,-0.30019,-0.66370,-3.43254,725.46392,828.42437,0.46937,13.92459,0.66370,-0.14079,6.52204,7.48701,7.34622
87.36499,-1.57079,1.57079,0.63714,-0.06715,-0.06733,0.14240,-0.18327,0.22180,2.23818,0.03042,-0.06408,2.07952,0.54524,-0.03401,-0.30019,-0.66370,-3.42883,725.07202,828.80694,0.46903,13.92484,0.66370,-0.14475,6.52204,7.48701,7.34225
87.36599,-1.57079,1.57079,0.63714,-0.06715,-0.06733,0.14240,-0.18327,0.22180,2.23818,0.03042,-0.06408,2.07952,0.54524,-0.03401,-0.30019,-0.66370,-3.42883,725.07202,828.80694,0.46903,13.92510,0.66370,-0.14869,6.52204,7.48701,7.33832
87.36699,-1.57079,1.57079,0.63714,-0.07058,-0.06744,0.14672,-0.18327,0.22180,2.23818,0.03042,-0.06408,2.07952,0.54524,-0.03401,-0.30019,-0.66370,-3.42516,724.68353,828.80694,0.46869,13.92536,0.66370,-0.15262,6.52204,7.48701,7.33439
87.36799,-1.57079,1.57079,0.63714,-0.07058,-0.06744,0.14672,-0.18327,0.22180,2.23818,0.03042,-0.06408,2.07952,0.54524,-0.03401,-0.30019,-0.66370,-3.42516,724.68353,828.80694,0.46869,13.92561,0.66370,-0.15659,6.52204,7.48701,7.33042
87.36900,-1.57079,1.57079,0.63714,-0.06271,-0.06913,0.14828,-0.18327,0.22180,2.23818,0.03042,-0.06408,2.07952,0.54524,-0.03401,-0.30019,-0.66370,-3.42145,724.29113,828.80694,0.46834,13.92587,0.66370,-0.16056,6.52204,7.48701,7.32644
87.37000,-1.57079,1.57079,0.63714,-0.06271,-0.06913,0.14828,-0.18327,0.22180,2.23818,0.03042,-0.06408,2.07952,0.54524,-0.03401,-0.30019,-0.66370,-3.42145,724.29113,828.80694,0.46834,13.92613,0.66370,-0.16450,6.52204,7.48701,7.32251
87.37100,-1.57079,1.57079,0.63714,-0.04970,-0.06683,0.14846,-0.18327,0.22180,2.23818,0.03042,-0.06408,2.07952,0.54524,-0.03401,-0.30019,-0.66370,-3.41777,723.90185,831.87939,0.46800,13.92639,0.66400,-0.16844,6.52204,7.48701,7.31857
87.37200,-1.57079,1.57079,0.63714,-0.04970,-0.06683,0.14846,-0.18327,0.22180,2.23818,0.03042,-0.06408,2.07952,0.54524,-0.03401,-0.30019,-0.66370,-3.41777,723.90185,831.87939,0.46800,13.92666,0.66400,-0.17241,6.52204,7.48701,7.31460
87.37300,0.27121,0.90068,0.75748,-0.04760,-0.06381,0.14894,-0.08956,0.11596,2.23818,0.02970,-0.06495,2.08107,0.54570,-0.03134,-0.30019,-0.66400,-3.31206,712.61956,831.87939,0.45864,13.92692,0.66400,-0.17681,6.52204,7.26904,7.09222
87.37400,0.27121,0.90068,0.75748,-0.04760,-0.06381,0.14894,-0.08956,0.11596,2.23818,0.02970,-0.06495,2.08107,0.54570,-0.03134,-0.30019,-0.66400,-3.31206,712.61956,854.04180,0.45864,13.92719,0.66400,-0.18140,6.52204,7.26904,7.08764
87.37500,0.27121,0.90068,0.75748,-0.05030,-0.06285,0.14893,-0.08956,0.11596,2.23818,0.02970,-0.06495,2.08107,0.54570,-0.03134,-0.30019,-0.66400,-3.30778,712.15893,831.87939,0.45824,13.92745,0.66400,-0.18598,6.52204,7.26904,7.08305
87.37599,0.27121,0.90068,0.75748,-0.05030,-0.06285,0.14893,-0.08956,0.11596,2.23818,0.02970,-0.06495,2.08107,0.54570,-0.03134,-0.30019,-0.66400,-3.30778,712.15893,824.24047,0.45824,13.92772,0.66400,-0.19067,6.52204,7.26904,7.07836
87.37699,0.27121,0.90068,0.75748,-0.04371,-0.05905,0.15031,-0.08956,0.11596,2.23818,0.02970,-0.06495,2.08107,0.54570,-0.03134,-0.30019,-0.66400,-3.30340,711.68682,824.24047,0.45784,13.92799,0.66400,-0.19537,6.52204,7.26904,7.07367
87.37799,0.27121,0.90068,0.75748,-0.04371,-0.05905,0.15031,-0.08956,0.11596,2.23818,0.02970,-0.06495,2.08107,0.54570,-0.03134,-0.30019,-0.66400,-3.30340,711.68682,848.39117,0.45784,13.92826,0.66400,-0.20002,6.52204,7.26904,7.06901
87.37899,0.27121,0.90068,0.75748,-0.03469,-0.05075,0.15878,-0.08956,0.11596,2.23818,0.02970,-0.06495,2.08107,0.54570,-0.03134,-0.30019,-0.66400,-3.29905,711.21844,848.39117,0.45743,13.92853,0.66400,-0.20467,6.52204,7.26904,7.06436
87.37999,0.27121,0.90068,0.75748,-0.03469,-0.05075,0.15878,-0.08956,0.11596,2.23818,0.02970,-0.06495,2.08107,0.54570,-0.03134,-0.30019,-0.66400,-3.29905,711.21844,848.39117,0.45743,13.92880,0.66400,-0.20934,6.52204,7.26904,7.05970
87.38099,0.27121,0.90068,0.75748,-0.03425,-0.04456,0.17652,-0.08956,0.11596,2.23818,0.02970,-0.06495,2.08107,0.54570,-0.03134,-0.30019,-0.66400,-3.29470,710.74908,848.39117,0.45702,13.92907,0.66400,-0.21400,6.52204,7.26904,7.05504
87.38200,0.27121,0.90068,0.75748,-0.03425,-0.04456,0.17652,-0.08956,0.11596,2.23818,0.02970,-0.06495,2.08107,0.54570,-0.03134,-0.30019,-0.66400,-3.29470,710.74908,814.51715,0.45702,13.92934,0.66400,-0.21876,6.52204,7.26904,7.05027
87.38300,0.99360,0.06684,0.77382,-0.03411,-0.04293,0.20032,-0.04468,0.06415,2.23818,0.02917,-0.06568,2.08276,0.54570,-0.03134,-0.30019,-0.66400,-3.26417,707.44805,812.30578,0.45427,13.92962,0.66400,-0.22363,6.52204,7.21330,6.98966
87.38400,0.99360,0.06684,0.77382,-0.03411,-0.04293,0.20032,-0.04468,0.06415,2.23818,0.02917,-0.06568,2.08276,0.54570,-0.03134,-0.30019,-0.66400,-3.26417,707.44805,805.02056,0.45427,13.92989,0.66400,-0.22850,6.52204,7.21330,6.98479
87.38500,0.99360,0.06684,0.77382,-0.02723,-0.04001,0.22891,-0.04468,0.06415,2.23818,0.02917,-0.06568,2.08276,0.54570,-0.03134,-0.30019,-0.66400,-3.25962,706.95495,799.99810,0.45385,13.93017,0.66400,-0.23337,6.52204,7.21330,6.97992
87.38600,0.99360,0.06684,0.77382,-0.02723,-0.04001,0.22891,-0.04468,0.06415,2.23818,0.02917,-0.06568,2.08276,0.54570,-0.03134,-0.30019,-0.66400,-3.25962,706.95495,799.99810,0.45385,13.93045,0.66400,-0.23811,6.52204,7.21330,6.97518
87.38700,0.99360,0.06684,0.77382,-0.02544,-0.03375,0.26503,-0.04468,0.06415,2.23818,0.02917,-0.06568,2.08276,0.54570,-0.03134,-0.30019,-0.66400,-3.25520,706.47534,797.15625,0.45343,13.93072,0.66400,-0.24284,6.52204,7.21330,6.97045
87.38800,0.99360,0.06684,0.77382,-0.02544,-0.03375,0.26503,-0.04468,0.06415,2.23818,0.02917,-0.06568,2.08276,0.54570,-0.03134,-0.30019,-0.66400,-3.25520,706.47534,795.74279,0.45343,13.93100,0.66400,-0.24751,6.52204,7.21330,6.96578
87.38899,0.99360,0.06684,0.77382,-0.03391,-0.02914,0.30946,-0.04468,0.06415,2.23818,0.02917,-0.06568,2.08276,0.54570,-0.03134,-0.30019,-0.66400,-3.25083,706.00177,793.63208,0.45302,13.93128,0.66400,-0.25218,6.52204,7.21330,6.96111
87.38999,0.99360,0.06684,0.77382,-0.03391,-0.02914,0.30946,-0.04468,0.06415,2.23818,0.02917,-0.06568,2.08276,0.54570,-0.03134,-0.30019,-0.66400,-3.25083,706.00177,793.63208,0.45302,13.93157,0.66400,-0.25686,6.52204,7.21330,6.95643
87.39099,0.99360,0.06684,0.77382,-0.03670,-0.02623,0.36037,-0.04468,0.06415,2.23818,0.02917,-0.06568,2.08276,0.54570,-0.03134,-0.30019,-0.66400,-3.24647,705.52777,791.53253,0.45261,13.93185,0.66459,-0.26153,6.52204,7.21330,6.95176
87.39199,0.99360,0.06684,0.77382,-0.03670,-0.02623,0.36037,-0.04468,0.06415,2.23818,0.02917,-0.06568,2.08276,0.54570,-0.03134,-0.30019,-0.66400,-3.24647,705.52777,785.98767,0.45261,13.93213,0.66459,-0.26604,6.52204,7.21330,6.94725
87.39299,0.89253,0.17230,0.75508,-0.02729,-0.01840,0.41880,-0.02753,0.04358,2.23818,0.02856,-0.06616,2.08591,0.54660,-0.03427,-0.30019,-0.66459,-3.22837,703.55865,785.98767,0.45096,13.93242,0.66459,-0.27061,6.52204,7.18362,6.91301
87.39399,0.89253,0.17230,0.75508,-0.02729,-0.01840,0.41880,-0.02753,0.04358,2.23818,0.02856,-0.06616,2.08591,0.54660,-0.03427,-0.30019,-0.66459,-3.22837,703.55865,785.98767,0.45096,13.93270,0.66459,-0.27486,6.52204,7.18362,6.90876
87.39499,0.89253,0.17230,0.75508,-0.02329,-0.00564,0.48710,-0.02753,0.04358,2.23818,0.02856,-0.06616,2.08591,0.54660,-0.03427,-0.30019,-0.66459,-3.22440,703.12603,784.61352,0.45058,13.93299,0.66459,-0.27911,6.52204,7.18362,6.90451
87.39600,0.89253,0.17230,0.75508,-0.02329,-0.00564,0.48710,-0.02753,0.04358,2.23818,0.02856,-0.06616,2.08591,0.54660,-0.03427,-0.30019,-0.66459,-3.22440,703.12603,781.19921,0.45058,13.93328,0.66459,-0.28315,6.52204,7.18362,6.90046
87.39700,0.89253,0.17230,0.75508,-0.03321,0.00386,0.56226,-0.02753,0.04358,2.23818,0.02856,-0.06616,2.08591,0.54660,-0.03427,-0.30019,-0.66459,-3.22062,702.71362,777.14105,0.45022,13.93356,0.66459,-0.28720,6.52204,7.18362,6.89641
87.39800,0.89253,0.17230,0.75508,-0.03321,0.00386,0.56226,-0.02753,0.04358,2.23818,0.02856,-0.06616,2.08591,0.54660,-0.03427,-0.30019,-0.66459,-3.22062,702.71362,773.79132,0.45022,13.93385,0.66459,-0.29120,6.52204,7.18362,6.89242
87.39900,0.89253,0.17230,0.75508,-0.04033,0.00828,0.63839,-0.02753,0.04358,2.23818,0.02856,-0.06616,2.08591,0.54660,-0.03427,-0.30019,-0.66459,-3.21689,702.30639,773.12475,0.44987,13.93415,0.66459,-0.29519,6.52204,7.18362,6.88842
87.40000,0.89253,0.17230,0.75508,-0.04033,0.00828,0.63839,-0.02753,0.04358,2.23818,0.02856,-0.06616,2.08591,0.54660,-0.03427,-0.30019,-0.66459,-3.21689,702.30639,772.45947,0.44987,13.93445,0.66459,-0.29904,6.52204,7.18362,6.88457
87.40100,0.89253,0.17230,0.75508,-0.03611,0.01561,0.71486,-0.02753,0.04358,2.23818,0.02856,-0.06616,2.08591,0.54660,-0.03427,-0.30019,-0.66459,-3.21330,701.91406,772.45947,0.44952,13.93475,0.66459,-0.30289,6.52204,7.18362,6.88073
87.40200,0.89253,0.17230,0.75508,-0.03611,0.01561,0.71486,-0.02753,0.04358,2.23818,0.02856,-0.06616,2.08591,0.54660,-0.03427,-0.30019,-0.66459,-3.21330,701.91406,772.45947,0.44952,13.93505,0.66459,-0.30643,6.52204,7.18362,6.87719
87.40299,0.79282,0.30564,0.71849,-0.03716,0.02894,0.79454,-0.01738,0.03232,2.23818,0.02767,-0.06634,2.09253,0.54660,-0.03427,-0.30019,-0.66459,-3.20779,701.31201,772.45947,0.44901,13.93535,0.66459,-0.30998,6.52204,7.17891,6.86893
87.40399,0.79282,0.30564,0.71849,-0.03716,0.02894,0.79454,-0.01738,0.03232,2.23818,0.02767,-0.06634,2.09253,0.54660,-0.03427,-0.30019,-0.66459,-3.20779,701.31201,771.13220,0.44901,13.93566,0.66459,-0.31328,6.52204,7.17891,6.86563
87.40499,0.79282,0.30564,0.71849,-0.05198,0.04109,0.87555,-0.01738,0.03232,2.23818,0.02767,-0.06634,2.09253,0.54660,-0.03427,-0.30019,-0.66459,-3.20471,700.97515,770.47027,0.44871,13.93597,0.66459,-0.31658,6.52204,7.17891,6.86233
87.40599,0.79282,0.30564,0.71849,-0.05198,0.04109,0.87555,-0.01738,0.03232,2.23818,0.02767,-0.06634,2.09253,0.54660,-0.03427,-0.30019,-0.66459,-3.20471,700.97515,767.83392,0.44871,13.93629,0.66459,-0.31975,6.52204,7.17891,6.85915
87.40699,0.79282,0.30564,0.71849,-0.06314,0.04853,0.95339,-0.01738,0.03232,2.23818,0.02767,-0.06634,2.09253,0.54660,-0.03427,-0.30019,-0.66459,-3.20174,700.65057,767.83392,0.44842,13.93661,0.66459,-0.32293,6.52204,7.17891,6.85598
87.40799,0.79282,0.30564,0.71849,-0.06314,0.04853,0.95339,-0.01738,0.03232,2.23818,0.02767,-0.06634,2.09253,0.54660,-0.03427,-0.30019,-0.66459,-3.20174,700.65057,767.83392,0.44842,13.93693,0.66459,-0.32589,6.52204,7.17891,6.85302
87.40899,0.79282,0.30564,0.71849,-0.06006,0.05795,1.02965,-0.01738,0.03232,2.23818,0.02767,-0.06634,2.09253,0.54660,-0.03427,-0.30019,-0.66459,-3.19897,700.34777,767.17767,0.44815,13.93726,0.66459,-0.32885,6.52204,7.17891,6.85005
87.41000,0.79282,0.30564,0.71849,-0.06006,0.05795,1.02965,-0.01738,0.03232,2.23818,0.02767,-0.06634,2.09253,0.54660,-0.03427,-0.30019,-0.66459,-3.19897,700.34777,766.52252,0.44815,13.93760,0.66459,-0.33142,6.52204,7.17891,6.84749
87.41100,0.79282,0.30564,0.71849,-0.05874,0.07281,1.10999,-0.01738,0.03232,2.23818,0.02767,-0.06634,2.09253,0.54660,-0.03427,-0.30019,-0.66459,-3.19658,700.08569,763.91308,0.44791,13.93794,0.66519,-0.33398,6.52203,7.17891,6.84492
87.41200,0.79282,0.30564,0.71849,-0.05874,0.07281,1.10999,-0.01738,0.03232,2.23818,0.02767,-0.06634,2.09253,0.54660,-0.03427,-0.30019,-0.66459,-3.19658,700.08569,760.67620,0.44791,13.93829,0.66519,-0.33620,6.52203,7.17891,6.84270
87.41300,0.76262,0.65444,0.65549,-0.07004,0.08566,1.19406,-0.00928,0.03938,2.23818,0.02619,-0.06607,2.10341,0.54750,-0.03580,-0.30019,-0.66519,-3.18985,699.34881,760.67620,0.44728,13.93864,0.66519,-0.33844,6.52203,7.16897,6.83052
87.41400,0.76262,0.65444,0.65549,-0.07004,0.08566,1.19406,-0.00928,0.03938,2.23818,0.02619,-0.06607,2.10341,0.54750,-0.03580,-0.30019,-0.66519,-3.18985,699.34881,760.67620,0.44728,13.93900,0.66519,-0.34054,6.52203,7.16897,6.82843
87.41500,0.76262,0.65444,0.65549,-0.07816,0.09118,1.27564,-0.00928,0.03938,2.23818,0.02619,-0.06607,2.10341,0.54750,-0.03580,-0.30019,-0.66519,-3.18790,699.13446,758.74719,0.44708,13.93937,0.66519,-0.34263,6.52203,7.16897,6.82633
87.41600,0.76262,0.65444,0.65549,-0.07816,0.09118,1.27564,-0.00928,0.03938,2.23818,0.02619,-0.06607,2.10341,0.54750,-0.03580,-0.30019,-0.66519,-3.18790,699.13446,753.01837,0.44708,13.93974,0.66519,-0.34460,6.52203,7.16897,6.82437
87.41699,0.76262,0.65444,0.65549,-0.07130,0.09602,1.35257,-0.00928,0.03938,2.23818,0.02619,-0.06607,2.10341,0.54750,-0.03580,-0.30019,-0.66519,-3.18606,698.93298,760.67620,0.44688,13.94012,0.66519,-0.34656,6.52203,7.16897,6.82240
87.41799,0.76262,0.65444,0.65549,-0.07130,0.09602,1.35257,-0.00928,0.03938,2.23818,0.02619,-0.06607,2.10341,0.54750,-0.03580,-0.30019,-0.66519,-3.18606,698.93298,747.99822,0.44688,13.94051,0.66519,-0.34824,6.52203,7.16897,6.82072
87.41899,0.76262,0.65444,0.65549,-0.06590,0.10729,1.42774,-0.00928,0.03938,2.23818,0.02619,-0.06607,2.10341,0.54750,-0.03580,-0.30019,-0.66519,-3.18449,698.76086,747.99822,0.44672,13.94091,0.66519,-0.34992,6.52203,7.16897,6.81904
87.41999,0.76262,0.65444,0.65549,-0.06590,0.10729,1.42774,-0.00928,0.03938,2.23818,0.02619,-0.06607,2.10341,0.54750,-0.03580,-0.30019,-0.66519,-3.18449,698.76086,744.89453,0.44672,13.94131,0.66519,-0.35130,6.52203,7.16897,6.81766
87.42099,0.76262,0.65444,0.65549,-0.07673,0.12039,1.50031,-0.00928,0.03938,2.23818,0.02619,-0.06607,2.10341,0.54750,-0.03580,-0.30019,-0.66519,-3.18320,698.61956,744.89453,0.44657,13.94172,0.66569,-0.35268,6.52203,7.16897,6.81628
87.42199,0.76262,0.65444,0.65549,-0.07673,0.12039,1.50031,-0.00928,0.03938,2.23818,0.02619,-0.06607,2.10341,0.54750,-0.03580,-0.30019,-0.66519,-3.18320,698.61956,744.89453,0.44657,13.94214,0.66569,-0.35395,6.52203,7.16897,6.81501
87.42299,0.55082,0.53165,0.58528,-0.08881,0.12813,1.56499,-0.01361,0.03245,2.23818,0.02426,-0.06536,2.11832,0.54824,-0.03390,-0.30019,-0.66569,-3.18378,698.68298,743.04461,0.44660,13.94256,0.66569,-0.35521,6.52203,7.17273,6.81752
87.42400,0.55082,0.53165,0.58528,-0.08881,0.12813,1.56499,-0.01361,0.03245,2.23818,0.02426,-0.06536,2.11832,0.54824,-0.03390,-0.30019,-0.66569,-3.18378,698.68298,743.04461,0.44660,13.94300,0.66569,-0.35641,6.52203,7.17273,6.81632
87.42500,0.55082,0.53165,0.58528,-0.08476,0.13405,1.62162,-0.01361,0.03245,2.23818,0.02426,-0.06536,2.11832,0.54824,-0.03390,-0.30019,-0.66569,-3.18266,698.56005,743.04461,0.44647,13.94344,0.66569,-0.35761,6.52203,7.17273,6.81512
87.42600,0.55082,0.53165,0.58528,-0.08476,0.13405,1.62162,-0.01361,0.03245,2.23818,0.02426,-0.06536,2.11832,0.54824,-0.03390,-0.30019,-0.66569,-3.18266,698.56005,743.04461,0.44647,13.94390,0.66569,-0.35858,6.52203,7.17273,6.81414
87.42700,0.55082,0.53165,0.58528,-0.07714,0.14519,1.67688,-0.01361,0.03245,2.23818,0.02426,-0.06536,2.11832,0.54824,-0.03390,-0.30019,-0.66569,-3.18175,698.46014,743.04461,0.44636,13.94437,0.66569,-0.35956,6.52203,7.17273,6.81317
87.42800,0.55082,0.53165,0.58528,-0.07714,0.14519,1.67688,-0.01361,0.03245,2.23818,0.02426,-0.06536,2.11832,0.54824,-0.03390,-0.30019,-0.66569,-3.18175,698.46014,743.04461,0.44636,13.94484,0.66569,-0.36027,6.52203,7.17273,6.81246
87.42900,0.55082,0.53165,0.58528,-0.08558,0.15778,1.73404,-0.01361,0.03245,2.23818,0.02426,-0.06536,2.11832,0.54824,-0.03390,-0.30019,-0.66569,-3.18109,698.38775,743.04461,0.44627,13.94533,0.66569,-0.36097,6.52203,7.17273,6.81176
87.43000,0.55082,0.53165,0.58528,-0.08558,0.15778,1.73404,-0.01361,0.03245,2.23818,0.02426,-0.06536,2.11832,0.54824,-0.03390,-0.30019,-0.66569,-3.18109,698.38775,739.98181,0.44627,13.94583,0.66569,-0.36162,6.52203,7.17273,6.81111
87.43099,0.55082,0.53165,0.58528,-0.10048,0.16296,1.78854,-0.01361,0.03245,2.23818,0.02426,-0.06536,2.11832,0.54824,-0.03390,-0.30019,-0.66569,-3.18048,698.32116,739.98181,0.44618,13.94634,0.66569,-0.36227,6.52203,7.17273,6.81046
87.43199,0.55082,0.53165,0.58528,-0.10048,0.16296,1.78854,-0.01361,0.03245,2.23818,0.02426,-0.06536,2.11832,0.54824,-0.03390,-0.30019,-0.66569,-3.18048,698.32116,743.04461,0.44618,13.94686,0.66569,-0.36302,6.52203,7.17273,6.80971
87.43299,0.58973,0.52576,0.49710,-0.09987,0.16289,1.83692,-0.01140,0.02919,2.23818,0.02202,-0.06424,2.13626,0.54824,-0.03390,-0.30019,-0.66569,-3.17935,698.19696,741.20391,0.44604,13.94739,0.66569,-0.36378,6.52203,7.17182,6.80804
87.43399,0.58973,0.52576,0.49710,-0.09987,0.16289,1.83692,-0.01140,0.02919,2.23818,0.02202,-0.06424,2.13626,0.54824,-0.03390,-0.30019,-0.66569,-3.17935,698.19696,741.20391,0.44604,13.94794,0.66569,-0.36455,6.52203,7.17182,6.80726
87.43499,0.58973,0.52576,0.49710,-0.08912,0.16770,1.88234,-0.01140,0.02919,2.23818,0.02202,-0.06424,2.13626,0.54824,-0.03390,-0.30019,-0.66569,-3.17863,698.11767,741.20391,0.44594,13.94849,0.66569,-0.36532,6.52203,7.17182,6.80649
87.43599,0.58973,0.52576,0.49710,-0.08912,0.16770,1.88234,-0.01140,0.02919,2.23818,0.02202,-0.06424,2.13626,0.54824,-0.03390,-0.30019,-0.66569,-3.17863,698.11767,741.81640,0.44594,13.94906,0.66569,-0.36603,6.52203,7.17182,6.80578
87.43699,0.58973,0.52576,0.49710,-0.09136,0.17811,1.92730,-0.01140,0.02919,2.23818,0.02202,-0.06424,2.13626,0.54824,-0.03390,-0.30019,-0.66569,-3.17797,698.04498,741.81640,0.44585,13.94964,0.66569,-0.36674,6.52203,7.17182,6.80507
87.43800,0.58973,0.52576,0.49710,-0.09136,0.17811,1.92730,-0.01140,0.02919,2.23818,0.02202,-0.06424,2.13626,0.54824,-0.03390,-0.30019,-0.66569,-3.17797,698.04498,741.20391,0.44585,13.95023,0.66569,-0.36752,6.52203,7.17182,6.80429
87.43900,0.58973,0.52576,0.49710,-0.10575,0.18467,1.96774,-0.01140,0.02919,2.23818,0.02202,-0.06424,2.13626,0.54824,-0.03390,-0.30019,-0.66569,-3.17723,697.96459,740.59228,0.44574,13.95083,0.66569,-0.36831,6.52203,7.17182,6.80350
87.44000,0.58973,0.52576,0.49710,-0.10575,0.18467,1.96774,-0.01140,0.02919,2.23818,0.02202,-0.06424,2.13626,0.54824,-0.03390,-0.30019,-0.66569,-3.17723,697.96459,740.59228,0.44574,13.95145,0.66569,-0.36932,6.52203,7.17182,6.80250
87.44100,0.58973,0.52576,0.49710,-0.10947,0.18502,1.99999,-0.01140,0.02919,2.23818,0.02202,-0.06424,2.13626,0.54824,-0.03390,-0.30019,-0.66569,-3.17629,697.86126,736.94409,0.44562,13.95207,0.66620,-0.37032,6.52203,7.17182,6.80149
87.44200,0.58973,0.52576,0.49710,-0.10947,0.18502,1.99999,-0.01140,0.02919,2.23818,0.02202,-0.06424,2.13626,0.54824,-0.03390,-0.30019,-0.66569,-3.17629,697.86126,736.94409,0.44562,13.95272,0.66620,-0.37145,6.52203,7.17182,6.80036
87.44300,0.36736,0.86955,0.39157,-0.09957,0.18824,2.02787,-0.02225,0.04509,2.23818,0.01955,-0.06286,2.15632,0.54900,-0.02798,-0.30019,-0.66620,-3.18873,699.22686,736.94409,0.44670,13.95337,0.66620,-0.37253,6.52203,7.20066,6.82813
87.44400,0.36736,0.86955,0.39157,-0.09957,0.18824,2.02787,-0.02225,0.04509,2.23818,0.01955,-0.06286,2.15632,0.54900,-0.02798,-0.30019,-0.66620,-3.18873,699.22686,732.73297,0.44670,13.95404,0.66620,-0.37355,6.52203,7.20066,6.82711
87.44499,0.36736,0.86955,0.39157,-0.09845,0.19799,2.05675,-0.02225,0.04509,2.23818,0.01955,-0.06286,2.15632,0.54900,-0.02798,-0.30019,-0.66620,-3.18778,699.12261,732.73297,0.44657,13.95472,0.66620,-0.37456,6.52203,7.20066,6.82609
87.44599,0.36736,0.86955,0.39157,-0.09845,0.19799,2.05675,-0.02225,0.04509,2.23818,0.01955,-0.06286,2.15632,0.54900,-0.02798,-0.30019,-0.66620,-3.18778,699.12261,732.73297,0.44657,13.95542,0.66620,-0.37558,6.52203,7.20066,6.82508
87.44699,0.36736,0.86955,0.39157,-0.11323,0.20497,2.08479,-0.02225,0.04509,2.23818,0.01955,-0.06286,2.15632,0.54900,-0.02798,-0.30019,-0.66620,-3.18683,699.01824,732.73297,0.44644,13.95613,0.66620,-0.37660,6.52203,7.20066,6.82406
87.44799,0.36736,0.86955,0.39157,-0.11323,0.20497,2.08479,-0.02225,0.04509,2.23818,0.01955,-0.06286,2.15632,0.54900,-0.02798,-0.30019,-0.66620,-3.18683,699.01824,723.28601,0.44644,13.95685,0.66620,-0.37781,6.52203,7.20066,6.82285
87.44899,0.36736,0.86955,0.39157,-0.12213,0.20314,2.10682,-0.02225,0.04509,2.23818,0.01955,-0.06286,2.15632,0.54900,-0.02798,-0.30019,-0.66620,-3.18571,698.89501,723.28601,0.44629,13.95758,0.66620,-0.37901,6.52203,7.20066,6.82165
87.44999,0.36736,0.86955,0.39157,-0.12213,0.20314,2.10682,-0.02225,0.04509,2.23818,0.01955,-0.06286,2.15632,0.54900,-0.02798,-0.30019,-0.66620,-3.18571,698.89501,723.28601,0.44629,13.95833,0.66620,-0.38035,6.52203,7.20066,6.82031
87.45099,0.36736,0.86955,0.39157,-0.11278,0.20097,2.12374,-0.02225,0.04509,2.23818,0.01955,-0.06286,2.15632,0.54900,-0.02798,-0.30019,-0.66620,-3.18445,698.75732,723.28601,0.44613,13.95910,0.66620,-0.38170,6.52203,7.20066,6.81896
87.45200,0.36736,0.86955,0.39157,-0.11278,0.20097,2.12374,-0.02225,0.04509,2.23818,0.01955,-0.06286,2.15632,0.54900,-0.02798,-0.30019,-0.66620,-3.18445,698.75732,723.28601,0.44613,13.95987,0.66620,-0.38291,6.52203,7.20066,6.81774
87.45300,0.27519,0.71852,0.29015,-0.10480,0.20708,2.14061,-0.03194,0.04391,2.23818,0.01693,-0.06127,2.17761,0.54900,-0.00948,-0.30019,-0.66620,-3.22303,702.97698,719.80584,0.44957,13.96066,0.66620,-0.38396,6.52203,7.28554,6.90157
87.45400,0.27519,0.71852,0.29015,-0.10480,0.20708,2.14061,-0.03194,0.04391,2.23818,0.01693,-0.06127,2.17761,0.54900,-0.00948,-0.30019,-0.66620,-3.22303,702.97698,719.80584,0.44957,13.96146,0.66620,-0.38481,6.52203,7.28554,6.90073
87.45500,0.27519,0.71852,0.29015,-0.11612,0.21528,2.15710,-0.03194,0.04391,2.23818,0.01693,-0.06127,2.17761,0.54900,-0.00948,-0.30019,-0.66620,-3.22224,702.89129,729.75439,0.44945,13.96228,0.66620,-0.38565,6.52203,7.28554,6.89989
87.45600,0.27519,0.71852,0.29015,-0.11612,0.21528,2.15710,-0.03194,0.04391,2.23818,0.01693,-0.06127,2.17761,0.54900,-0.00948,-0.30019,-0.66620,-3.22224,702.89129,730.34814,0.44945,13.96311,0.66620,-0.38648,6.52203,7.28554,6.89905
87.45700,0.27519,0.71852,0.29015,-0.13151,0.21531,2.16769,-0.03194,0.04391,2.23818,0.01693,-0.06127,2.17761,0.54900,-0.00948,-0.30019,-0.66620,-3.22146,702.80590,730.34814,0.44932,13.96395,0.66620,-0.38732,6.52203,7.28554,6.89821
87.45800,0.27519,0.71852,0.29015,-0.13151,0.21531,2.16769,-0.03194,0.04391,2.23818,0.01693,-0.06127,2.17761,0.54900,-0.00948,-0.30019,-0.66620,-3.22146,702.80590,730.34814,0.44932,13.96481,0.66620,-0.38826,6.52203,7.28554,6.89727
87.45899,0.27519,0.71852,0.29015,-0.12935,0.21088,2.17153,-0.03194,0.04391,2.23818,0.01693,-0.06127,2.17761,0.54900,-0.00948,-0.30019,-0.66620,-3.22058,702.71026,730.34814,0.44919,13.96568,0.66620,-0.38920,6.52203,7.28554,6.89633
87.45999,0.27519,0.71852,0.29015,-0.12935,0.21088,2.17153,-0.03194,0.04391,2.23818,0.01693,-0.06127,2.17761,0.54900,-0.00948,-0.30019,-0.66620,-3.22058,702.71026,730.34814,0.44919,13.96656,0.66620,-0.39005,6.52203,7.28554,6.89549
87.46099,0.27519,0.71852,0.29015,-0.11957,0.21321,2.17429,-0.03194,0.04391,2.23818,0.01693,-0.06127,2.17761,0.54900,-0.00948,-0.30019,-0.66620,-3.21979,702.62390,729.75439,0.44906,13.96745,0.66620,-0.39090,6.52203,7.28554,6.89464
87.46199,0.27519,0.71852,0.29015,-0.11957,0.21321,2.17429,-0.03194,0.04391,2.23818,0.01693,-0.06127,2.17761,0.54900,-0.00948,-0.30019,-0.66620,-3.21979,702.62390,730.34814,0.44906,13.96836,0.66620,-0.39150,6.52203,7.28554,6.89404
87.46299,0.55874,0.55678,0.18534,-0.12601,0.22135,2.17836,-0.02341,0.03763,2.23818,0.01419,-0.05951,2.19947,0.54900,-0.00948,-0.30019,-0.66620,-3.21755,702.37933,730.34814,0.44880,13.96928,0.66620,-0.39211,6.52203,7.28195,6.88984
87.46399,0.55874,0.55678,0.18534,-0.12601,0.22135,2.17836,-0.02341,0.03763,2.23818,0.01419,-0.05951,2.19947,0.54900,-0.00948,-0.30019,-0.66620,-3.21755,702.37933,730.34814,0.44880,13.97021,0.66620,-0.39263,6.52203,7.28195,6.88932
87.46499,0.55874,0.55678,0.18534,-0.14434,0.22390,2.17844,-0.02341,0.03763,2.23818,0.01419,-0.05951,2.19947,0.54900,-0.00948,-0.30019,-0.66620,-3.21706,702.32598,733.33160,0.44869,13.97116,0.66620,-0.39315,6.52203,7.28195,6.88879
87.46600,0.55874,0.55678,0.18534,-0.14434,0.22390,2.17844,-0.02341,0.03763,2.23818,0.01419,-0.05951,2.19947,0.54900,-0.00948,-0.30019,-0.66620,-3.21706,702.32598,733.93121,0.44869,13.97212,0.66620,-0.39382,6.52203,7.28195,6.88813
87.46700,0.55874,0.55678,0.18534,-0.14967,0.21934,2.17055,-0.02341,0.03763,2.23818,0.01419,-0.05951,2.19947,0.54900,-0.00948,-0.30019,-0.66620,-3.21644,702.25823,733.33160,0.44857,13.97310,0.66620,-0.39448,6.52203,7.28195,6.88746
87.46800,0.55874,0.55678,0.18534,-0.14967,0.21934,2.17055,-0.02341,0.03763,2.23818,0.01419,-0.05951,2.19947,0.54900,-0.00948,-0.30019,-0.66620,-3.21644,702.25823,733.33160,0.44857,13.97409,0.66620,-0.39524,6.52203,7.28195,6.88670
87.46900,0.55874,0.55678,0.18534,-0.14008,0.21922,2.15885,-0.02341,0.03763,2.23818,0.01419,-0.05951,2.19947,0.54900,-0.00948,-0.30019,-0.66620,-3.21573,702.18066,720.38354,0.44845,13.97509,0.66620,-0.39600,6.52203,7.28195,6.88594
87.47000,0.55874,0.55678,0.18534,-0.14008,0.21922,2.15885,-0.02341,0.03763,2.23818,0.01419,-0.05951,2.19947,0.54900,-0.00948,-0.30019,-0.66620,-3.21573,702.18066,720.38354,0.44845,13.97611,0.66620,-0.39669,6.52203,7.28195,6.88525
87.47100,0.55874,0.55678,0.18534,-0.13973,0.22832,2.14843,-0.02341,0.03763,2.23818,0.01419,-0.05951,2.19947,0.54900,-0.00948,-0.30019,-0.66620,-3.21509,702.11041,720.38354,0.44832,13.97714,0.66599,-0.39738,6.52203,7.28195,6.88457
87.47200,0.55874,0.55678,0.18534,-0.13973,0.22832,2.14843,-0.02341,0.03763,2.23818,0.01419,-0.05951,2.19947,0.54900,-0.00948,-0.30019,-0.66620,-3.21509,702.11041,720.38354,0.44832,13.97818,0.66599,-0.39805,6.52203,7.28195,6.88390
87.47299,0.47970,0.68540,0.07735,-0.15661,0.23632,2.13690,-0.02631,0.04271,2.23818,0.01126,-0.05759,2.22114,0.54870,0.00961,-0.30019,-0.66599,-3.25632,706.59820,720.38354,0.45196,13.97924,0.66599,-0.39854,6.52203,7.37140,6.97286
87.47399,0.47970,0.68540,0.07735,-0.15661,0.23632,2.13690,-0.02631,0.04271,2.23818,0.01126,-0.05759,2.22114,0.54870,0.00961,-0.30019,-0.66599,-3.25632,706.59820,718.65319,0.45196,13.98031,0.66599,-0.39920,6.52203,7.37140,6.97220
87.47499,0.47970,0.68540,0.07735,-0.16902,0.23561,2.11944,-0.02631,0.04271,2.23818,0.01126,-0.05759,2.22114,0.54870,0.00961,-0.30019,-0.66599,-3.25571,706.53155,718.65319,0.45183,13.98140,0.66599,-0.39985,6.52203,7.37140,6.97154
87.47599,0.47970,0.68540,0.07735,-0.16902,0.23561,2.11944,-0.02631,0.04271,2.23818,0.01126,-0.05759,2.22114,0.54870,0.00961,-0.30019,-0.66599,-3.25571,706.53155,718.65319,0.45183,13.98249,0.66599,-0.40061,6.52203,7.37140,6.97079
87.47699,0.47970,0.68540,0.07735,-0.16382,0.23405,2.09822,-0.02631,0.04271,2.23818,0.01126,-0.05759,2.22114,0.54870,0.00961,-0.30019,-0.66599,-3.25500,706.45501,718.65319,0.45170,13.98360,0.66599,-0.40137,6.52203,7.37140,6.97003
87.47799,0.47970,0.68540,0.07735,-0.16382,0.23405,2.09822,-0.02631,0.04271,2.23818,0.01126,-0.05759,2.22114,0.54870,0.00961,-0.30019,-0.66599,-3.25500,706.45501,718.65319,0.45170,13.98472,0.66599,-0.40191,6.52203,7.37140,6.96949
87.47899,0.47970,0.68540,0.07735,-0.15955,0.24047,2.07910,-0.02631,0.04271,2.23818,0.01126,-0.05759,2.22114,0.54870,0.00961,-0.30019,-0.66599,-3.25449,706.39971,720.96215,0.45158,13.98586,0.66599,-0.40246,6.52203,7.37140,6.96894
87.48000,0.47970,0.68540,0.07735,-0.15955,0.24047,2.07910,-0.02631,0.04271,2.23818,0.01126,-0.05759,2.22114,0.54870,0.00961,-0.30019,-0.66599,-3.25449,706.39971,743.66021,0.45158,13.98701,0.66599,-0.40269,6.52203,7.37140,6.96870
87.48100,0.47970,0.68540,0.07735,-0.17360,0.24865,2.06141,-0.02631,0.04271,2.23818,0.01126,-0.05759,2.22114,0.54870,0.00961,-0.30019,-0.66599,-3.25427,706.37579,745.51318,0.45149,13.98817,0.66599,-0.40293,6.52203,7.37140,6.96847
87.48200,0.47970,0.68540,0.07735,-0.17360,0.24865,2.06141,-0.02631,0.04271,2.23818,0.01126,-0.05759,2.22114,0.54870,0.00961,-0.30019,-0.66599,-3.25427,706.37579,745.51318,0.45149,13.98935,0.66599,-0.40309,6.52203,7.37140,6.96831
87.48300,0.59039,0.55651,-0.02330,-0.19109,0.24830,2.03884,-0.02182,0.03810,2.23818,0.00815,-0.05540,2.24194,0.54870,0.00961,-0.30019,-0.66599,-3.25311,706.24932,745.51318,0.45131,13.99054,0.66599,-0.40325,6.52203,7.36923,6.96597
87.48400,0.59039,0.55651,-0.02330,-0.19109,0.24830,2.03884,-0.02182,0.03810,2.23818,0.00815,-0.05540,2.24194,0.54870,0.00961,-0.30019,-0.66599,-3.25311,706.24932,745.51318,0.45131,13.99174,0.66599,-0.40350,6.52203,7.36923,6.96573
87.48500,0.59039,0.55651,-0.02330,-0.19068,0.24381,2.01022,-0.02182,0.03810,2.23818,0.00815,-0.05540,2.24194,0.54870,0.00961,-0.30019,-0.66599,-3.25288,706.22460,745.51318,0.45121,13.99296,0.66599,-0.40374,6.52203,7.36923,6.96549
87.48600,0.59039,0.55651,-0.02330,-0.19068,0.24381,2.01022,-0.02182,0.03810,2.23818,0.00815,-0.05540,2.24194,0.54870,0.00961,-0.30019,-0.66599,-3.25288,706.22460,745.51318,0.45121,13.99419,0.66599,-0.40393,6.52203,7.36923,6.96530
87.48699,0.59039,0.55651,-0.02330,-0.18272,0.24751,1.98150,-0.02182,0.03810,2.23818,0.00815,-0.05540,2.24194,0.54870,0.00961,-0.30019,-0.66599,-3.25270,706.20556,745.51318,0.45111,13.99544,0.66599,-0.40411,6.52203,7.36923,6.96511
87.48799,0.59039,0.55651,-0.02330,-0.18272,0.24751,1.98150,-0.02182,0.03810,2.23818,0.00815,-0.05540,2.24194,0.54870,0.00961,-0.30019,-0.66599,-3.25270,706.20556,745.51318,0.45111,13.99670,0.66599,-0.40412,6.52203,7.36923,6.96511
87.48899,0.59039,0.55651,-0.02330,-0.19217,0.25857,1.95514,-0.02182,0.03810,2.23818,0.00815,-0.05540,2.24194,0.54870,0.00961,-0.30019,-0.66599,-3.25270,706.20501,734.53186,0.45103,13.99797,0.66599,-0.40413,6.52203,7.36923,6.96510
87.48999,0.59039,0.55651,-0.02330,-0.19217,0.25857,1.95514,-0.02182,0.03810,2.23818,0.00815,-0.05540,2.24194,0.54870,0.00961,-0.30019,-0.66599,-3.25270,706.20501,733.93121,0.45103,13.99926,0.66599,-0.40412,6.52203,7.36923,6.96511
87.49099,0.59039,0.55651,-0.02330,-0.21548,0.26397,1.92542,-0.02182,0.03810,2.23818,0.00815,-0.05540,2.24194,0.54870,0.00961,-0.30019,-0.66599,-3.25271,706.20562,727.38891,0.45095,14.00056,0.66519,-0.40411,6.52203,7.36923,6.96512
87.49199,0.59039,0.55651,-0.02330,-0.21548,0.26397,1.92542,-0.02182,0.03810,2.23818,0.00815,-0.05540,2.24194,0.54870,0.00961,-0.30019,-0.66599,-3.25271,706.20562,716.93121,0.45095,14.00187,0.66519,-0.40430,6.52203,7.36923,6.96493
87.49299,0.37242,0.72121,-0.11960,-0.22599,0.26018,1.88802,-0.03222,0.04587,2.23818,0.00481,-0.05299,2.26144,0.54750,0.03600,-0.30019,-0.66519,-3.31280,712.69915,716.93121,0.45621,14.00320,0.66519,-0.40423,6.52203,7.49803,7.09380
87.49400,0.37242,0.72121,-0.11960,-0.22599,0.26018,1.88802,-0.03222,0.04587,2.23818,0.00481,-0.05299,2.26144,0.54750,0.03600,-0.30019,-0.66519,-3.31280,712.69915,716.93121,0.45621,14.00454,0.66519,-0.40428,6.52203,7.49803,7.09374
87.49500,0.37242,0.72121,-0.11960,-0.21892,0.25850,1.84789,-0.03222,0.04587,2.23818,0.00481,-0.05299,2.26144,0.54750,0.03600,-0.30019,-0.66519,-3.31275,712.69360,716.93121,0.45612,14.00590,0.66519,-0.40434,6.52203,7.49803,7.09368
87.49600,0.37242,0.72121,-0.11960,-0.21892,0.25850,1.84789,-0.03222,0.04587,2.23818,0.00481,-0.05299,2.26144,0.54750,0.03600,-0.30019,-0.66519,-3.31275,712.69360,716.93121,0.45612,14.00726,0.66519,-0.40431,6.52203,7.49803,7.09371
87.49700,0.37242,0.72121,-0.11960,-0.21884,0.26522,1.81163,-0.03222,0.04587,2.23818,0.00481,-0.05299,2.26144,0.54750,0.03600,-0.30019,-0.66519,-3.31277,712.69622,716.93121,0.45603,14.00865,0.66519,-0.40429,6.52203,7.49803,7.09374
87.49800,0.37242,0.72121,-0.11960,-0.21884,0.26522,1.81163,-0.03222,0.04587,2.23818,0.00481,-0.05299,2.26144,0.54750,0.03600,-0.30019,-0.66519,-3.31277,712.69622,716.93121,0.45603,14.01004,0.66519,-0.40421,6.52203,7.49803,7.09381
87.49900,0.37242,0.72121,-0.11960,-0.23697,0.27137,1.77739,-0.03222,0.04587,2.23818,0.00481,-0.05299,2.26144,0.54750,0.03600,-0.30019,-0.66519,-3.31285,712.70404,717.50433,0.45595,14.01145,0.66519,-0.40413,6.52203,7.49803,7.09389
87.50000,0.37242,0.72121,-0.11960,-0.23697,0.27137,1.77739,-0.03222,0.04587,2.23818,0.00481,-0.05299,2.26144,0.54750,0.03600,-0.30019,-0.66519,-3.31285,712.70404,720.96215,0.45595,14.01287,0.66519,-0.40420,6.52203,7.49803,7.09382
87.50099,0.37242,0.72121,-0.11960,-0.25232,0.26924,1.73917,-0.03222,0.04587,2.23818,0.00481,-0.05299,2.26144,0.54750,0.03600,-0.30019,-0.66519,-3.31278,712.69653,720.96215,0.45585,14.01430,0.66380,-0.40427,6.52204,7.49803,7.09376
87.50199,0.37242,0.72121,-0.11960,-0.25232,0.26924,1.73917,-0.03222,0.04587,2.23818,0.00481,-0.05299,2.26144,0.54750,0.03600,-0.30019,-0.66519,-3.31278,712.69653,722.12219,0.45585,14.01575,0.66380,-0.40446,6.52204,7.49803,7.09356
87.50299,0.69131,0.36181,-0.20484,-0.24871,0.26609,1.69772,-0.02042,0.03068,2.23818,0.00124,-0.05038,2.27911,0.54540,0.07316,-0.30019,-0.66380,-3.39221,721.19012,722.12219,0.46274,14.01721,0.66380,-0.40432,6.52204,7.66817,7.26384
87.50399,0.69131,0.36181,-0.20484,-0.24871,0.26609,1.69772,-0.02042,0.03068,2.23818,0.00124,-0.05038,2.27911,0.54540,0.07316,-0.30019,-0.66380,-3.39221,721.19012,722.12219,0.46274,14.01867,0.66380,-0.40402,6.52204,7.66817,7.26414
87.50499,0.69131,0.36181,-0.20484,-0.24323,0.27111,1.65900,-0.02042,0.03068,2.23818,0.00124,-0.05038,2.27911,0.54540,0.07316,-0.30019,-0.66380,-3.39249,721.21960,722.12219,0.46267,14.02015,0.66380,-0.40372,6.52204,7.66817,7.26444
87.50599,0.69131,0.36181,-0.20484,-0.24323,0.27111,1.65900,-0.02042,0.03068,2.23818,0.00124,-0.05038,2.27911,0.54540,0.07316,-0.30019,-0.66380,-3.39249,721.21960,722.12219,0.46267,14.02164,0.66380,-0.40317,6.52204,7.66817,7.26499
87.50700,0.69131,0.36181,-0.20484,-0.25665,0.27894,1.62288,-0.02042,0.03068,2.23818,0.00124,-0.05038,2.27911,0.54540,0.07316,-0.30019,-0.66380,-3.39301,721.27484,722.12219,0.46261,14.02315,0.66380,-0.40261,6.52204,7.66817,7.26555
87.50800,0.69131,0.36181,-0.20484,-0.25665,0.27894,1.62288,-0.02042,0.03068,2.23818,0.00124,-0.05038,2.27911,0.54540,0.07316,-0.30019,-0.66380,-3.39301,721.27484,722.12219,0.46261,14.02466,0.66380,-0.40204,6.52204,7.66817,7.26612
87.50900,0.69131,0.36181,-0.20484,-0.27732,0.27894,1.58208,-0.02042,0.03068,2.23818,0.00124,-0.05038,2.27911,0.54540,0.07316,-0.30019,-0.66380,-3.39355,721.33203,722.12219,0.46256,14.02619,0.66380,-0.40146,6.52204,7.66817,7.26670
87.51000,0.69131,0.36181,-0.20484,-0.27732,0.27894,1.58208,-0.02042,0.03068,2.23818,0.00124,-0.05038,2.27911,0.54540,0.07316,-0.30019,-0.66380,-3.39355,721.33203,722.12219,0.46256,14.02773,0.66380,-0.40105,6.52204,7.66817,7.26711
87.51100,0.69131,0.36181,-0.20484,-0.28121,0.27430,1.53374,-0.02042,0.03068,2.23818,0.00124,-0.05038,2.27911,0.54540,0.07316,-0.30019,-0.66380,-3.39393,721.37213,722.12219,0.46249,14.02928,0.66180,-0.40063,6.52206,7.66817,7.26753
87.51200,0.69131,0.36181,-0.20484,-0.28121,0.27430,1.53374,-0.02042,0.03068,2.23818,0.00124,-0.05038,2.27911,0.54540,0.07316,-0.30019,-0.66380,-3.39393,721.37213,721.54168,0.46249,14.03084,0.66180,-0.40022,6.52206,7.66817,7.26794
87.51300,0.86941,0.59237,-0.28120,-0.27378,0.27716,1.48404,-0.00820,0.03772,2.23818,-0.00249,-0.04761,2.29478,0.54240,0.11074,-0.30019,-0.66180,-3.48005,730.46655,721.54168,0.46986,14.03241,0.66180,-0.39945,6.52206,7.85138,7.45193
87.51399,0.86941,0.59237,-0.28120,-0.27378,0.27716,1.48404,-0.00820,0.03772,2.23818,-0.00249,-0.04761,2.29478,0.54240,0.11074,-0.30019,-0.66180,-3.48005,730.46655,721.54168,0.46986,14.03399,0.66180,-0.39849,6.52206,7.85138,7.45288
87.51499,0.86941,0.59237,-0.28120,-0.28108,0.28777,1.43789,-0.00820,0.03772,2.23818,-0.00249,-0.04761,2.29478,0.54240,0.11074,-0.30019,-0.66180,-3.48094,730.55987,720.38354,0.46983,14.03558,0.66180,-0.39754,6.52206,7.85138,7.45383
87.51599,0.86941,0.59237,-0.28120,-0.28108,0.28777,1.43789,-0.00820,0.03772,2.23818,-0.00249,-0.04761,2.29478,0.54240,0.11074,-0.30019,-0.66180,-3.48094,730.55987,720.96215,0.46983,14.03718,0.66180,-0.39656,6.52206,7.85138,7.45482
87.51699,0.86941,0.59237,-0.28120,-0.30493,0.29372,1.39127,-0.00820,0.03772,2.23818,-0.00249,-0.04761,2.29478,0.54240,0.11074,-0.30019,-0.66180,-3.48186,730.65655,721.54168,0.46981,14.03879,0.66180,-0.39557,6.52206,7.85138,7.45581
87.51799,0.86941,0.59237,-0.28120,-0.30493,0.29372,1.39127,-0.00820,0.03772,2.23818,-0.00249,-0.04761,2.29478,0.54240,0.11074,-0.30019,-0.66180,-3.48186,730.65655,721.54168,0.46981,14.04041,0.66180,-0.39480,6.52206,7.85138,7.45658
87.51899,0.86941,0.59237,-0.28120,-0.31966,0.29078,1.33902,-0.00820,0.03772,2.23818,-0.00249,-0.04761,2.29478,0.54240,0.11074,-0.30019,-0.66180,-3.48258,730.73236,721.54168,0.46976,14.04204,0.66180,-0.39402,6.52206,7.85138,7.45735
87.51999,0.86941,0.59237,-0.28120,-0.31966,0.29078,1.33902,-0.00820,0.03772,2.23818,-0.00249,-0.04761,2.29478,0.54240,0.11074,-0.30019,-0.66180,-3.48258,730.73236,721.54168,0.46976,14.04368,0.66180,-0.39342,6.52206,7.85138,7.45795
87.52100,0.86941,0.59237,-0.28120,-0.31629,0.28970,1.28437,-0.00820,0.03772,2.23818,-0.00249,-0.04761,2.29478,0.54240,0.11074,-0.30019,-0.66180,-3.48314,730.79138,721.54168,0.46970,14.04533,0.66180,-0.39282,6.52206,7.85138,7.45856
87.52200,0.86941,0.59237,-0.28120,-0.31629,0.28970,1.28437,-0.00820,0.03772,2.23818,-0.00249,-0.04761,2.29478,0.54240,0.11074,-0.30019,-0.66180,-3.48314,730.79138,720.96215,0.46970,14.04699,0.66180,-0.39215,6.52206,7.85138,7.45922
87.52300,0.67778,0.51888,-0.34559,-0.31773,0.29725,1.23318,-0.01257,0.03579,2.23818,-0.00646,-0.04464,2.30804,0.54240,0.11074,-0.30019,-0.66180,-3.48367,730.84649,720.96215,0.46963,14.04866,0.66180,-0.39149,6.52206,7.85118,7.45968
87.52400,0.67778,0.51888,-0.34559,-0.31773,0.29725,1.23318,-0.01257,0.03579,2.23818,-0.00646,-0.04464,2.30804,0.54240,0.11074,-0.30019,-0.66180,-3.48367,730.84649,720.96215,0.46963,14.05034,0.66180,-0.39075,6.52206,7.85118,7.46042
87.52500,0.67778,0.51888,-0.34559,-0.33853,0.30434,1.18303,-0.01257,0.03579,2.23818,-0.00646,-0.04464,2.30804,0.54240,0.11074,-0.30019,-0.66180,-3.48436,730.91900,720.96215,0.46958,14.05202,0.66180,-0.39001,6.52206,7.85118,7.46116
87.52600,0.67778,0.51888,-0.34559,-0.33853,0.30434,1.18303,-0.01257,0.03579,2.23818,-0.00646,-0.04464,2.30804,0.54240,0.11074,-0.30019,-0.66180,-3.48436,730.91900,723.86926,0.46958,14.05372,0.66180,-0.38942,6.52206,7.85118,7.46175
87.52700,0.67778,0.51888,-0.34559,-0.35937,0.30133,1.12658,-0.01257,0.03579,2.23818,-0.00646,-0.04464,2.30804,0.54240,0.11074,-0.30019,-0.66180,-3.48491,730.97686,723.86926,0.46951,14.05542,0.66180,-0.38883,6.52206,7.85118,7.46234
87.52799,0.67778,0.51888,-0.34559,-0.35937,0.30133,1.12658,-0.01257,0.03579,2.23818,-0.00646,-0.04464,2.30804,0.54240,0.11074,-0.30019,-0.66180,-3.48491,730.97686,725.62481,0.46951,14.05713,0.66180,-0.38844,6.52206,7.85118,7.46273
87.52899,0.67778,0.51888,-0.34559,-0.36077,0.29443,1.06389,-0.01257,0.03579,2.23818,-0.00646,-0.04464,2.30804,0.54240,0.11074,-0.30019,-0.66180,-3.48528,731.01519,725.62481,0.46943,14.05885,0.66180,-0.38805,6.52206,7.85118,7.46313
87.52999,0.67778,0.51888,-0.34559,-0.36077,0.29443,1.06389,-0.01257,0.03579,2.23818,-0.00646,-0.04464,2.30804,0.54240,0.11074,-0.30019,-0.66180,-3.48528,731.01519,732.13531,0.46943,14.06057,0.66180,-0.38757,6.52206,7.85118,7.46360
87.53099,0.67778,0.51888,-0.34559,-0.35716,0.29450,1.00266,-0.01257,0.03579,2.23818,-0.00646,-0.04464,2.30804,0.54240,0.11074,-0.30019,-0.66180,-3.48572,731.06103,732.13531,0.46935,14.06231,0.65999,-0.38709,6.52208,7.85118,7.46408
87.53199,0.67778,0.51888,-0.34559,-0.35716,0.29450,1.00266,-0.01257,0.03579,2.23818,-0.00646,-0.04464,2.30804,0.54240,0.11074,-0.30019,-0.66180,-3.48572,731.06103,735.13342,0.46935,14.06405,0.65999,-0.38635,6.52208,7.85118,7.46482
87.53299,0.74377,0.46199,-0.39645,-0.37147,0.29809,0.94594,-0.00998,0.03312,2.23818,-0.01071,-0.04157,2.31853,0.53969,0.14370,-0.30019,-0.65999,-3.56111,738.92462,735.13342,0.47568,14.06579,0.65999,-0.38530,6.52208,8.01082,7.62552
87.53399,0.74377,0.46199,-0.39645,-0.37147,0.29809,0.94594,-0.00998,0.03312,2.23818,-0.01071,-0.04157,2.31853,0.53969,0.14370,-0.30019,-0.65999,-3.56111,738.92462,732.13531,0.47568,14.06754,0.65999,-0.38418,6.52208,8.01082,7.62663
87.53500,0.74377,0.46199,-0.39645,-0.39460,0.29387,0.88830,-0.00998,0.03312,2.23818,-0.01071,-0.04157,2.31853,0.53969,0.14370,-0.30019,-0.65999,-3.56215,739.03247,732.13531,0.47565,14.06930,0.65999,-0.38307,6.52208,8.01082,7.62774
87.53600,0.74377,0.46199,-0.39645,-0.39460,0.29387,0.88830,-0.00998,0.03312,2.23818,-0.01071,-0.04157,2.31853,0.53969,0.14370,-0.30019,-0.65999,-3.56215,739.03247,732.13531,0.47565,14.07107,0.65999,-0.38212,6.52208,8.01082,7.62869
87.53700,0.74377,0.46199,-0.39645,-0.40074,0.28291,0.82645,-0.00998,0.03312,2.23818,-0.01071,-0.04157,2.31853,0.53969,0.14370,-0.30019,-0.65999,-3.56304,739.12438,732.13531,0.47561,14.07283,0.65999,-0.38117,6.52208,8.01082,7.62964
87.53800,0.74377,0.46199,-0.39645,-0.40074,0.28291,0.82645,-0.00998,0.03312,2.23818,-0.01071,-0.04157,2.31853,0.53969,0.14370,-0.30019,-0.65999,-3.56304,739.12438,732.13531,0.47561,14.07461,0.65999,-0.38030,6.52208,8.01082,7.63051
87.53900,0.74377,0.46199,-0.39645,-0.39184,0.27723,0.76529,-0.00998,0.03312,2.23818,-0.01071,-0.04157,2.31853,0.53969,0.14370,-0.30019,-0.65999,-3.56385,739.20880,732.13531,0.47556,14.07638,0.65999,-0.37943,6.52208,8.01082,7.63138
87.54000,0.74377,0.46199,-0.39645,-0.39184,0.27723,0.76529,-0.00998,0.03312,2.23818,-0.01071,-0.04157,2.31853,0.53969,0.14370,-0.30019,-0.65999,-3.56385,739.20880,730.34814,0.47556,14.07817,0.65999,-0.37848,6.52208,8.01082,7.63233
87.54100,0.74377,0.46199,-0.39645,-0.39363,0.27919,0.70903,-0.00998,0.03312,2.23818,-0.01071,-0.04157,2.31853,0.53969,0.14370,-0.30019,-0.65999,-3.56474,739.30065,730.34814,0.47551,14.07995,0.65999,-0.37753,6.52208,8.01082,7.63328
87.54199,0.74377,0.46199,-0.39645,-0.39363,0.27919,0.70903,-0.00998,0.03312,2.23818,-0.01071,-0.04157,2.31853,0.53969,0.14370,-0.30019,-0.65999,-3.56474,739.30065,727.38891,0.47551,14.08175,0.65999,-0.37663,6.52208,8.01082,7.63418
87.54299,0.69671,0.47593,-0.43144,-0.41078,0.27792,0.65339,-0.01255,0.03320,2.23818,-0.01522,-0.03868,2.32598,0.53969,0.14370,-0.30019,-0.65999,-3.56570,739.40057,727.38891,0.47547,14.08354,0.65999,-0.37572,6.52208,8.01107,7.63534
87.54399,0.69671,0.47593,-0.43144,-0.41078,0.27792,0.65339,-0.01255,0.03320,2.23818,-0.01522,-0.03868,2.32598,0.53969,0.14370,-0.30019,-0.65999,-3.56570,739.40057,727.38891,0.47547,14.08534,0.65999,-0.37508,6.52208,8.01107,7.63599
87.54499,0.69671,0.47593,-0.43144,-0.41985,0.26868,0.59280,-0.01255,0.03320,2.23818,-0.01522,-0.03868,2.32598,0.53969,0.14370,-0.30019,-0.65999,-3.56630,739.46270,727.38891,0.47540,14.08715,0.65999,-0.37444,6.52208,8.01107,7.63663
87.54599,0.69671,0.47593,-0.43144,-0.41985,0.26868,0.59280,-0.01255,0.03320,2.23818,-0.01522,-0.03868,2.32598,0.53969,0.14370,-0.30019,-0.65999,-3.56630,739.46270,729.75439,0.47540,14.08896,0.65999,-0.37401,6.52208,8.01107,7.63706
87.54699,0.69671,0.47593,-0.43144,-0.41153,0.26092,0.52980,-0.01255,0.03320,2.23818,-0.01522,-0.03868,2.32598,0.53969,0.14370,-0.30019,-0.65999,-3.56671,739.50445,730.34814,0.47532,14.09077,0.65999,-0.37358,6.52208,8.01107,7.63749
87.54799,0.69671,0.47593,-0.43144,-0.41153,0.26092,0.52980,-0.01255,0.03320,2.23818,-0.01522,-0.03868,2.32598,0.53969,0.14370,-0.30019,-0.65999,-3.56671,739.50445,731.53863,0.47532,14.09259,0.65999,-0.37314,6.52208,8.01107,7.63793
87.54900,0.69671,0.47593,-0.43144,-0.40670,0.26136,0.47031,-0.01255,0.03320,2.23818,-0.01522,-0.03868,2.32598,0.53969,0.14370,-0.30019,-0.65999,-3.56712,739.54699,731.53863,0.47523,14.09441,0.65999,-0.37270,6.52208,8.01107,7.63837
87.55000,0.69671,0.47593,-0.43144,-0.40670,0.26136,0.47031,-0.01255,0.03320,2.23818,-0.01522,-0.03868,2.32598,0.53969,0.14370,-0.30019,-0.65999,-3.56712,739.54699,732.13531,0.47523,14.09623,0.65999,-0.37224,6.52208,8.01107,7.63883
87.55100,0.69671,0.47593,-0.43144,-0.41843,0.26246,0.41339,-0.01255,0.03320,2.23818,-0.01522,-0.03868,2.32598,0.53969,0.14370,-0.30019,-0.65999,-3.56755,739.59020,732.13531,0.47514,14.09806,0.65690,-0.37178,6.52210,8.01107,7.63929
87.55200,0.69671,0.47593,-0.43144,-0.41843,0.26246,0.41339,-0.01255,0.03320,2.23818,-0.01522,-0.03868,2.32598,0.53969,0.14370,-0.30019,-0.65999,-3.56755,739.59020,732.13531,0.47514,14.09989,0.65690,-0.37146,6.52210,8.01107,7.63961
87.55300,0.73203,0.42868,-0.45272,-0.42902,0.25648,0.35368,-0.01286,0.03093,2.23818,-0.01979,-0.03602,2.33047,0.53505,0.17791,-0.30019,-0.65690,-3.64945,748.03179,732.13531,0.48192,14.10173,0.65690,-0.37079,6.52210,8.18547,7.81468
87.55400,0.73203,0.42868,-0.45272,-0.42902,0.25648,0.35368,-0.01286,0.03093,2.23818,-0.01979,-0.03602,2.33047,0.53505,0.17791,-0.30019,-0.65690,-3.64945,748.03179,735.13342,0.48192,14.10357,0.65690,-0.37024,6.52210,8.18547,7.81522
87.55500,0.73203,0.42868,-0.45272,-0.42272,0.24919,0.29170,-0.01286,0.03093,2.23818,-0.01979,-0.03602,2.33047,0.53505,0.17791,-0.30019,-0.65690,-3.64996,748.08428,732.13531,0.48184,14.10541,0.65690,-0.36969,6.52210,8.18547,7.81577
87.55599,0.73203,0.42868,-0.45272,-0.42272,0.24919,0.29170,-0.01286,0.03093,2.23818,-0.01979,-0.03602,2.33047,0.53505,0.17791,-0.30019,-0.65690,-3.64996,748.08428,732.13531,0.48184,14.10726,0.65690,-0.36900,6.52210,8.18547,7.81646
87.55699,0.73203,0.42868,-0.45272,-0.41481,0.24864,0.23334,-0.01286,0.03093,2.23818,-0.01979,-0.03602,2.33047,0.53505,0.17791,-0.30019,-0.65690,-3.65061,748.15039,735.13342,0.48177,14.10911,0.65690,-0.36831,6.52210,8.18547,7.81715
87.55799,0.73203,0.42868,-0.45272,-0.41481,0.24864,0.23334,-0.01286,0.03093,2.23818,-0.01979,-0.03602,2.33047,0.53505,0.17791,-0.30019,-0.65690,-3.65061,748.15039,735.13342,0.48177,14.11096,0.65690,-0.36738,6.52210,8.18547,7.81808
87.55899,0.73203,0.42868,-0.45272,-0.42401,0.24963,0.17927,-0.01286,0.03093,2.23818,-0.01979,-0.03602,2.33047,0.53505,0.17791,-0.30019,-0.65690,-3.65148,748.23956,735.13342,0.48171,14.11281,0.65690,-0.36645,6.52210,8.18547,7.81902
87.55999,0.73203,0.42868,-0.45272,-0.42401,0.24963,0.17927,-0.01286,0.03093,2.23818,-0.01979,-0.03602,2.33047,0.53505,0.17791,-0.30019,-0.65690,-3.65148,748.23956,737.54962,0.48171,14.11466,0.65690,-0.36550,6.52210,8.18547,7.81996
87.56099,0.73203,0.42868,-0.45272,-0.43739,0.24243,0.12338,-0.01286,0.03093,2.23818,-0.01979,-0.03602,2.33047,0.53505,0.17791,-0.30019,-0.65690,-3.65236,748.32781,741.20391,0.48166,14.11651,0.65320,-0.36456,6.52214,8.18547,7.82090
87.56199,0.73203,0.42868,-0.45272,-0.43739,0.24243,0.12338,-0.01286,0.03093,2.23818,-0.01979,-0.03602,2.33047,0.53505,0.17791,-0.30019,-0.65690,-3.65236,748.32781,741.20391,0.48166,14.11837,0.65320,-0.36376,6.52214,8.18547,7.82170
87.56300,0.90000,0.63271,-0.45362,-0.43167,0.23052,0.06339,-0.00593,0.04104,2.23818,-0.02431,-0.03357,2.33201,0.52950,0.21241,-0.30019,-0.65320,-3.73867,757.11785,741.20391,0.48871,14.12022,0.65320,-0.36260,6.52214,8.36832,8.00571
87.56400,0.90000,0.63271,-0.45362,-0.43167,0.23052,0.06339,-0.00593,0.04104,2.23818,-0.02431,-0.03357,2.33201,0.52950,0.21241,-0.30019,-0.65320,-3.73867,757.11785,741.20391,0.48871,14.12208,0.65320,-0.36140,6.52214,8.36832,8.00691
87.56500,0.90000,0.63271,-0.45362,-0.41440,0.22542,0.00508,-0.00593,0.04104,2.23818,-0.02431,-0.03357,2.33201,0.52950,0.21241,-0.30019,-0.65320,-3.73978,757.23083,741.20391,0.48867,14.12393,0.65320,-0.36021,6.52214,8.36832,8.00810
87.56600,0.90000,0.63271,-0.45362,-0.41440,0.22542,0.00508,-0.00593,0.04104,2.23818,-0.02431,-0.03357,2.33201,0.52950,0.21241,-0.30019,-0.65320,-3.73978,757.23083,741.20391,0.48867,14.12579,0.65320,-0.35882,6.52214,8.36832,8.00949
87.56700,0.90000,0.63271,-0.45362,-0.41148,0.22711,-0.04724,-0.00593,0.04104,2.23818,-0.02431,-0.03357,2.33201,0.52950,0.21241,-0.30019,-0.65320,-3.74108,757.36248,741.20391,0.48865,14.12765,0.65320,-0.35742,6.52214,8.36832,8.01089
87.56800,0.90000,0.63271,-0.45362,-0.41148,0.22711,-0.04724,-0.00593,0.04104,2.23818,-0.02431,-0.03357,2.33201,0.52950,0.21241,-0.30019,-0.65320,-3.74108,757.36248,741.20391,0.48865,14.12950,0.65320,-0.35597,6.52214,8.36832,8.01234
87.56900,0.90000,0.63271,-0.45362,-0.42258,0.22423,-0.09739,-0.00593,0.04104,2.23818,-0.02431,-0.03357,2.33201,0.52950,0.21241,-0.30019,-0.65320,-3.74243,757.49945,741.20391,0.48864,14.13136,0.65320,-0.35453,6.52214,8.36832,8.01378
87.56999,0.90000,0.63271,-0.45362,-0.42258,0.22423,-0.09739,-0.00593,0.04104,2.23818,-0.02431,-0.03357,2.33201,0.52950,0.21241,-0.30019,-0.65320,-3.74243,757.49945,742.42999,0.48864,14.13321,0.65320,-0.35325,6.52214,8.36832,8.01506
87.57099,0.90000,0.63271,-0.45362,-0.42323,0.21360,-0.14999,-0.00593,0.04104,2.23818,-0.02431,-0.03357,2.33201,0.52950,0.21241,-0.30019,-0.65320,-3.74363,757.62048,742.42999,0.48861,14.13507,0.65320,-0.35196,6.52214,8.36832,8.01635
87.57199,0.90000,0.63271,-0.45362,-0.42323,0.21360,-0.14999,-0.00593,0.04104,2.23818,-0.02431,-0.03357,2.33201,0.52950,0.21241,-0.30019,-0.65320,-3.74363,757.62048,742.42999,0.48861,14.13693,0.65320,-0.35083,6.52214,8.36832,8.01748
87.57299,0.80767,0.47096,-0.44948,-0.40885,0.20497,-0.20268,-0.00925,0.03719,2.23818,-0.02867,-0.03143,2.33079,0.52950,0.21241,-0.30019,-0.65320,-3.74420,757.67773,742.42999,0.48853,14.13879,0.65320,-0.34970,6.52214,8.36726,8.01756
87.57399,0.80767,0.47096,-0.44948,-0.40885,0.20497,-0.20268,-0.00925,0.03719,2.23818,-0.02867,-0.03143,2.33079,0.52950,0.21241,-0.30019,-0.65320,-3.74420,757.67773,744.89453,0.48853,14.14064,0.65320,-0.34859,6.52214,8.36726,8.01867
87.57499,0.80767,0.47096,-0.44948,-0.40172,0.20334,-0.25151,-0.00925,0.03719,2.23818,-0.02867,-0.03143,2.33079,0.52950,0.21241,-0.30019,-0.65320,-3.74524,757.78302,744.89453,0.48848,14.14250,0.65320,-0.34747,6.52214,8.36726,8.01978
87.57599,0.80767,0.47096,-0.44948,-0.40172,0.20334,-0.25151,-0.00925,0.03719,2.23818,-0.02867,-0.03143,2.33079,0.52950,0.21241,-0.30019,-0.65320,-3.74524,757.78302,744.89453,0.48848,14.14436,0.65320,-0.34645,6.52214,8.36726,8.02081
87.57700,0.80767,0.47096,-0.44948,-0.40961,0.20112,-0.29906,-0.00925,0.03719,2.23818,-0.02867,-0.03143,2.33079,0.52950,0.21241,-0.30019,-0.65320,-3.74620,757.87994,745.51318,0.48843,14.14621,0.65320,-0.34542,6.52214,8.36726,8.02184
87.57800,0.80767,0.47096,-0.44948,-0.40961,0.20112,-0.29906,-0.00925,0.03719,2.23818,-0.02867,-0.03143,2.33079,0.52950,0.21241,-0.30019,-0.65320,-3.74620,757.87994,745.51318,0.48843,14.14807,0.65320,-0.34465,6.52214,8.36726,8.02261
87.57900,0.80767,0.47096,-0.44948,-0.41183,0.19324,-0.35020,-0.00925,0.03719,2.23818,-0.02867,-0.03143,2.33079,0.52950,0.21241,-0.30019,-0.65320,-3.74692,757.95294,745.51318,0.48837,14.14993,0.65320,-0.34388,6.52214,8.36726,8.02338
87.58000,0.80767,0.47096,-0.44948,-0.41183,0.19324,-0.35020,-0.00925,0.03719,2.23818,-0.02867,-0.03143,2.33079,0.52950,0.21241,-0.30019,-0.65320,-3.74692,757.95294,744.89453,0.48837,14.15178,0.65320,-0.34327,6.52214,8.36726,8.02398
87.58100,0.80767,0.47096,-0.44948,-0.39756,0.18696,-0.40300,-0.00925,0.03719,2.23818,-0.02867,-0.03143,2.33079,0.52950,0.21241,-0.30019,-0.65320,-3.74748,758.00744,744.89453,0.48828,14.15363,0.64879,-0.34267,6.52218,8.36726,8.02459
87.58200,0.80767,0.47096,-0.44948,-0.39756,0.18696,-0.40300,-0.00925,0.03719,2.23818,-0.02867,-0.03143,2.33079,0.52950,0.21241,-0.30019,-0.65320,-3.74748,758.00744,744.89453,0.48828,14.15549,0.64879,-0.34199,6.52218,8.36726,8.02527
87.58300,0.98031,0.16046,-0.43929,-0.38583,0.18815,-0.45155,-0.00205,0.02105,2.23818,-0.03278,-0.02962,2.32708,0.52290,0.25192,-0.30019,-0.64879,-3.84323,767.63006,745.51318,0.49599,14.15734,0.64879,-0.34090,6.52218,8.57052,8.22962
87.58399,0.98031,0.16046,-0.43929,-0.38583,0.18815,-0.45155,-0.00205,0.02105,2.23818,-0.03278,-0.02962,2.32708,0.52290,0.25192,-0.30019,-0.64879,-3.84323,767.63006,750.49993,0.49599,14.15919,0.64879,-0.33966,6.52218,8.57052,8.23085
87.58499,0.98031,0.16046,-0.43929,-0.39069,0.18961,-0.49576,-0.00205,0.02105,2.23818,-0.03278,-0.02962,2.32708,0.52290,0.25192,-0.30019,-0.64879,-3.84438,767.74542,750.49993,0.49596,14.16104,0.64879,-0.33842,6.52218,8.57052,8.23209
87.58599,0.98031,0.16046,-0.43929,-0.39069,0.18961,-0.49576,-0.00205,0.02105,2.23818,-0.03278,-0.02962,2.32708,0.52290,0.25192,-0.30019,-0.64879,-3.84438,767.74542,761.96765,0.49596,14.16288,0.64879,-0.33721,6.52218,8.57052,8.23331
87.58699,0.98031,0.16046,-0.43929,-0.39528,0.18328,-0.54085,-0.00205,0.02105,2.23818,-0.03278,-0.02962,2.32708,0.52290,0.25192,-0.30019,-0.64879,-3.84552,767.85913,974.06170,0.49592,14.16472,0.64879,-0.33599,6.52218,8.57052,8.23453
87.58799,0.98031,0.16046,-0.43929,-0.39528,0.18328,-0.54085,-0.00205,0.02105,2.23818,-0.03278,-0.02962,2.32708,0.52290,0.25192,-0.30019,-0.64879,-3.84552,767.85913,974.06170,0.49592,14.16656,0.64879,-0.33481,6.52218,8.57052,8.23570
87.58899,0.98031,0.16046,-0.43929,-0.38245,0.17443,-0.58792,-0.00205,0.02105,2.23818,-0.03278,-0.02962,2.32708,0.52290,0.25192,-0.30019,-0.64879,-3.84662,767.96856,974.06170,0.49588,14.16839,0.64879,-0.33364,6.52218,8.57052,8.23688
87.58999,0.98031,0.16046,-0.43929,-0.38245,0.17443,-0.58792,-0.00205,0.02105,2.23818,-0.03278,-0.02962,2.32708,0.52290,0.25192,-0.30019,-0.64879,-3.84662,767.96856,974.06170,0.49588,14.17023,0.64879,-0.33231,6.52218,8.57052,8.23821
87.59100,0.98031,0.16046,-0.43929,-0.36580,0.17210,-0.63249,-0.00205,0.02105,2.23818,-0.03278,-0.02962,2.32708,0.52290,0.25192,-0.30019,-0.64879,-3.84786,768.08978,974.06170,0.49585,14.17206,0.64380,-0.33097,6.52223,8.57052,8.23954
87.59200,0.98031,0.16046,-0.43929,-0.36580,0.17210,-0.63249,-0.00205,0.02105,2.23818,-0.03278,-0.02962,2.32708,0.52290,0.25192,-0.30019,-0.64879,-3.84786,768.08978,974.06170,0.49585,14.17388,0.64380,-0.32940,6.52223,8.57052,8.24112
87.59300,1.13530,0.30620,-0.40319,-0.36397,0.17355,-0.67304,0.00780,0.02178,2.23818,-0.03660,-0.02805,2.32104,0.51540,0.28459,-0.30019,-0.64380,-3.93413,776.65197,974.06170,0.50269,14.17570,0.64380,-0.32746,6.52223,8.75173,8.42427
87.59400,1.13530,0.30620,-0.40319,-0.36397,0.17355,-0.67304,0.00780,0.02178,2.23818,-0.03660,-0.02805,2.32104,0.51540,0.28459,-0.30019,-0.64380,-3.93413,776.65197,765.21557,0.50269,14.17752,0.64380,-0.32545,6.52223,8.75173,8.42628
87.59500,1.13530,0.30620,-0.40319,-0.36580,0.17082,-0.71386,0.00780,0.02178,2.23818,-0.03660,-0.02805,2.32104,0.51540,0.28459,-0.30019,-0.64380,-3.93601,776.83795,765.21557,0.50271,14.17934,0.64380,-0.32343,6.52223,8.75173,8.42830
87.59600,1.13530,0.30620,-0.40319,-0.36580,0.17082,-0.71386,0.00780,0.02178,2.23818,-0.03660,-0.02805,2.32104,0.51540,0.28459,-0.30019,-0.64380,-3.93601,776.83795,761.32135,0.50271,14.18115,0.64380,-0.32140,6.52223,8.75173,8.43033
87.59700,1.13530,0.30620,-0.40319,-0.35106,0.16610,-0.75721,0.00780,0.02178,2.23818,-0.03660,-0.02805,2.32104,0.51540,0.28459,-0.30019,-0.64380,-3.93791,777.02484,761.32135,0.50274,14.18296,0.64380,-0.31937,6.52223,8.75173,8.43236
87.59799,1.13530,0.30620,-0.40319,-0.35106,0.16610,-0.75721,0.00780,0.02178,2.23818,-0.03660,-0.02805,2.32104,0.51540,0.28459,-0.30019,-0.64380,-3.93791,777.02484,752.38720,0.50274,14.18477,0.64380,-0.31718,6.52223,8.75173,8.43455
87.59899,1.13530,0.30620,-0.40319,-0.32836,0.16690,-0.79937,0.00780,0.02178,2.23818,-0.03660,-0.02805,2.32104,0.51540,0.28459,-0.30019,-0.64380,-3.93996,777.22698,752.38720,0.50277,14.18657,0.64380,-0.31499,6.52223,8.75173,8.43674
87.59999,1.13530,0.30620,-0.40319,-0.32836,0.16690,-0.79937,0.00780,0.02178,2.23818,-0.03660,-0.02805,2.32104,0.51540,0.28459,-0.30019,-0.64380,-3.93996,777.22698,749.24700,0.50277,14.18837,0.64380,-0.31255,6.52223,8.75173,8.43918
87.60099,1.13530,0.30620,-0.40319,-0.31983,0.17071,-0.83749,0.00780,0.02178,2.23818,-0.03660,-0.02805,2.32104,0.51540,0.28459,-0.30019,-0.64380,-3.94223,777.45135,757.46655,0.50283,14.19017,0.64380,-0.31011,6.52223,8.75173,8.44162
87.60199,1.13530,0.30620,-0.40319,-0.31983,0.17071,-0.83749,0.00780,0.02178,2.23818,-0.03660,-0.02805,2.32104,0.51540,0.28459,-0.30019,-0.64380,-3.94223,777.45135,757.46655,0.50283,14.19196,0.64380,-0.30765,6.52223,8.75173,8.44408
87.60299,0.91154,0.40855,-0.35746,-0.32108,0.16868,-0.87466,0.00036,0.02533,2.23818,-0.03994,-0.02668,2.31291,0.51540,0.28459,-0.30019,-0.64380,-3.94475,777.69970,757.46655,0.50290,14.19375,0.64380,-0.30518,6.52223,8.75220,8.44701
87.60399,0.91154,0.40855,-0.35746,-0.32108,0.16868,-0.87466,0.00036,0.02533,2.23818,-0.03994,-0.02668,2.31291,0.51540,0.28459,-0.30019,-0.64380,-3.94475,777.69970,761.32135,0.50290,14.19553,0.64380,-0.30290,6.52223,8.75220,8.44930
87.60500,0.91154,0.40855,-0.35746,-0.30997,0.16217,-0.91399,0.00036,0.02533,2.23818,-0.03994,-0.02668,2.31291,0.51540,0.28459,-0.30019,-0.64380,-3.94689,777.91015,757.46655,0.50295,14.19732,0.64380,-0.30061,6.52223,8.75220,8.45158
87.60600,0.91154,0.40855,-0.35746,-0.30997,0.16217,-0.91399,0.00036,0.02533,2.23818,-0.03994,-0.02668,2.31291,0.51540,0.28459,-0.30019,-0.64380,-3.94689,777.91015,761.32135,0.50295,14.19910,0.64380,-0.29844,6.52223,8.75220,8.45376
87.60700,0.91154,0.40855,-0.35746,-0.28749,0.16066,-0.95277,0.00036,0.02533,2.23818,-0.03994,-0.02668,2.31291,0.51540,0.28459,-0.30019,-0.64380,-3.94892,778.11010,761.32135,0.50298,14.20087,0.64380,-0.29627,6.52223,8.75220,8.45593
87.60800,0.91154,0.40855,-0.35746,-0.28749,0.16066,-0.95277,0.00036,0.02533,2.23818,-0.03994,-0.02668,2.31291,0.51540,0.28459,-0.30019,-0.64380,-3.94892,778.11010,757.46655,0.50298,14.20264,0.64380,-0.29413,6.52223,8.75220,8.45807
87.60900,0.91154,0.40855,-0.35746,-0.27514,0.16453,-0.98764,0.00036,0.02533,2.23818,-0.03994,-0.02668,2.31291,0.51540,0.28459,-0.30019,-0.64380,-3.95091,778.30688,757.46655,0.50302,14.20441,0.64380,-0.29199,6.52223,8.75220,8.46020
87.61000,0.91154,0.40855,-0.35746,-0.27514,0.16453,-0.98764,0.00036,0.02533,2.23818,-0.03994,-0.02668,2.31291,0.51540,0.28459,-0.30019,-0.64380,-3.95091,778.30688,757.46655,0.50302,14.20617,0.64380,-0.29004,6.52223,8.75220,8.46216
87.61100,0.91154,0.40855,-0.35746,-0.27462,0.16461,-1.02111,0.00036,0.02533,2.23818,-0.03994,-0.02668,2.31291,0.51540,0.28459,-0.30019,-0.64380,-3.95274,778.48443,763.91308,0.50304,14.20793,0.64020,-0.28808,6.52227,8.75220,8.46411
87.61199,0.91154,0.40855,-0.35746,-0.27462,0.16461,-1.02111,0.00036,0.02533,2.23818,-0.03994,-0.02668,2.31291,0.51540,0.28459,-0.30019,-0.64380,-3.95274,778.48443,765.86853,0.50304,14.20969,0.64020,-0.28648,6.52227,8.75220,8.46572
87.61299,0.98219,0.41333,-0.30605,-0.26506,0.15915,-1.05701,0.00164,0.02680,2.23818,-0.04267,-0.02543,2.30288,0.51000,0.31873,-0.30019,-0.64020,-4.03768,786.80438,763.91308,0.50967,14.21144,0.64020,-0.28452,6.52227,8.93052,8.64600
87.61399,0.98219,0.41333,-0.30605,-0.26506,0.15915,-1.05701,0.00164,0.02680,2.23818,-0.04267,-0.02543,2.30288,0.51000,0.31873,-0.30019,-0.64020,-4.03768,786.80438,763.91308,0.50967,14.21319,0.64020,-0.28283,6.52227,8.93052,8.64768
87.61499,0.98219,0.41333,-0.30605,-0.24261,0.15649,-1.09337,0.00164,0.02680,2.23818,-0.04267,-0.02543,2.30288,0.51000,0.31873,-0.30019,-0.64020,-4.03925,786.95751,763.91308,0.50967,14.21493,0.64020,-0.28115,6.52227,8.93052,8.64937
87.61599,0.98219,0.41333,-0.30605,-0.24261,0.15649,-1.09337,0.00164,0.02680,2.23818,-0.04267,-0.02543,2.30288,0.51000,0.31873,-0.30019,-0.64020,-4.03925,786.95751,763.91308,0.50967,14.21667,0.64020,-0.27962,6.52227,8.93052,8.65090
87.61699,0.98219,0.41333,-0.30605,-0.22779,0.15918,-1.12614,0.00164,0.02680,2.23818,-0.04267,-0.02543,2.30288,0.51000,0.31873,-0.30019,-0.64020,-4.04068,787.09698,763.91308,0.50965,14.21841,0.64020,-0.27809,6.52227,8.93052,8.65243
87.61799,0.98219,0.41333,-0.30605,-0.22779,0.15918,-1.12614,0.00164,0.02680,2.23818,-0.04267,-0.02543,2.30288,0.51000,0.31873,-0.30019,-0.64020,-4.04068,787.09698,763.91308,0.50965,14.22014,0.64020,-0.27679,6.52227,8.93052,8.65372
87.61900,0.98219,0.41333,-0.30605,-0.22680,0.15976,-1.15683,0.00164,0.02680,2.23818,-0.04267,-0.02543,2.30288,0.51000,0.31873,-0.30019,-0.64020,-4.04189,787.21453,763.91308,0.50963,14.22186,0.64020,-0.27550,6.52227,8.93052,8.65502
87.62000,0.98219,0.41333,-0.30605,-0.22680,0.15976,-1.15683,0.00164,0.02680,2.23818,-0.04267,-0.02543,2.30288,0.51000,0.31873,-0.30019,-0.64020,-4.04189,787.21453,763.91308,0.50963,14.22359,0.64020,-0.27460,6.52227,8.93052,8.65592
87.62100,0.98219,0.41333,-0.30605,-0.21971,0.15559,-1.18970,0.00164,0.02680,2.23818,-0.04267,-0.02543,2.30288,0.51000,0.31873,-0.30019,-0.64020,-4.04273,787.29681,763.91308,0.50957,14.22531,0.64020,-0.27369,6.52227,8.93052,8.65683
87.62200,0.98219,0.41333,-0.30605,-0.21971,0.15559,-1.18970,0.00164,0.02680,2.23818,-0.04267,-0.02543,2.30288,0.51000,0.31873,-0.30019,-0.64020,-4.04273,787.29681,763.91308,0.50957,14.22702,0.64020,-0.27308,6.52227,8.93052,8.65744
87.62300,0.93343,0.39746,-0.24725,-0.19825,0.15435,-1.22384,-0.00163,0.02731,2.23818,-0.04477,-0.02434,2.29116,0.51000,0.31873,-0.30019,-0.64020,-4.04336,787.35809,763.91308,0.50950,14.22873,0.64020,-0.27246,6.52227,8.93064,8.65817
87.62400,0.93343,0.39746,-0.24725,-0.19825,0.15435,-1.22384,-0.00163,0.02731,2.23818,-0.04477,-0.02434,2.29116,0.51000,0.31873,-0.30019,-0.64020,-4.04336,787.35809,763.91308,0.50950,14.23044,0.64020,-0.27192,6.52227,8.93064,8.65871
87.62500,0.93343,0.39746,-0.24725,-0.18160,0.15985,-1.25528,-0.00163,0.02731,2.23818,-0.04477,-0.02434,2.29116,0.51000,0.31873,-0.30019,-0.64020,-4.04387,787.40722,768.49133,0.50941,14.23215,0.64020,-0.27138,6.52227,8.93064,8.65925
87.62599,0.93343,0.39746,-0.24725,-0.18160,0.15985,-1.25528,-0.00163,0.02731,2.23818,-0.04477,-0.02434,2.29116,0.51000,0.31873,-0.30019,-0.64020,-4.04387,787.40722,768.49133,0.50941,14.23385,0.64020,-0.27091,6.52227,8.93064,8.65973
87.62699,0.93343,0.39746,-0.24725,-0.17994,0.16500,-1.28471,-0.00163,0.02731,2.23818,-0.04477,-0.02434,2.29116,0.51000,0.31873,-0.30019,-0.64020,-4.04431,787.45019,768.49133,0.50933,14.23554,0.64020,-0.27044,6.52227,8.93064,8.66020
87.62799,0.93343,0.39746,-0.24725,-0.17994,0.16500,-1.28471,-0.00163,0.02731,2.23818,-0.04477,-0.02434,2.29116,0.51000,0.31873,-0.30019,-0.64020,-4.04431,787.45019,768.49133,0.50933,14.23723,0.64020,-0.27015,6.52227,8.93064,8.66049
87.62899,0.93343,0.39746,-0.24725,-0.17478,0.16506,-1.31595,-0.00163,0.02731,2.23818,-0.04477,-0.02434,2.29116,0.51000,0.31873,-0.30019,-0.64020,-4.04458,787.47644,769.14984,0.50923,14.23892,0.64020,-0.26986,6.52227,8.93064,8.66078
87.62999,0.93343,0.39746,-0.24725,-0.17478,0.16506,-1.31595,-0.00163,0.02731,2.23818,-0.04477,-0.02434,2.29116,0.51000,0.31873,-0.30019,-0.64020,-4.04458,787.47644,769.14984,0.50923,14.24059,0.64020,-0.26967,6.52227,8.93064,8.66097
87.63099,0.93343,0.39746,-0.24725,-0.15382,0.16585,-1.34798,-0.00163,0.02731,2.23818,-0.04477,-0.02434,2.29116,0.51000,0.31873,-0.30019,-0.64020,-4.04476,787.49005,769.14984,0.50912,14.24227,0.63439,-0.26948,6.52233,8.93064,8.66116
87.63200,0.93343,0.39746,-0.24725,-0.15382,0.16585,-1.34798,-0.00163,0.02731,2.23818,-0.04477,-0.02434,2.29116,0.51000,0.31873,-0.30019,-0.64020,-4.04476,787.49005,769.14984,0.50912,14.24394,0.63439,-0.26917,6.52233,8.93064,8.66146
87.63300,1.18004,0.08810,-0.19436,-0.13426,0.17175,-1.37637,0.00922,0.01207,2.23818,-0.04628,-0.02324,2.27784,0.50130,0.34002,-0.30019,-0.63439,-4.10712,793.53704,769.80950,0.51390,14.24561,0.63439,-0.26861,6.52233,9.06330,8.79469
87.63400,1.18004,0.08810,-0.19436,-0.13426,0.17175,-1.37637,0.00922,0.01207,2.23818,-0.04628,-0.02324,2.27784,0.50130,0.34002,-0.30019,-0.63439,-4.10712,793.53704,769.80950,0.51390,14.24727,0.63439,-0.26795,6.52233,9.06330,8.79534
87.63500,1.18004,0.08810,-0.19436,-0.13031,0.17708,-1.40155,0.00922,0.01207,2.23818,-0.04628,-0.02324,2.27784,0.50130,0.34002,-0.30019,-0.63439,-4.10773,793.59625,769.80950,0.51382,14.24893,0.63439,-0.26729,6.52233,9.06330,8.79600
87.63600,1.18004,0.08810,-0.19436,-0.13031,0.17708,-1.40155,0.00922,0.01207,2.23818,-0.04628,-0.02324,2.27784,0.50130,0.34002,-0.30019,-0.63439,-4.10773,793.59625,769.80950,0.51382,14.25058,0.63439,-0.26671,6.52233,9.06330,8.79658
87.63700,1.18004,0.08810,-0.19436,-0.12722,0.17739,-1.42789,0.00922,0.01207,2.23818,-0.04628,-0.02324,2.27784,0.50130,0.34002,-0.30019,-0.63439,-4.10827,793.64886,771.13220,0.51375,14.25223,0.63439,-0.26613,6.52233,9.06330,8.79717
87.63800,1.18004,0.08810,-0.19436,-0.12722,0.17739,-1.42789,0.00922,0.01207,2.23818,-0.04628,-0.02324,2.27784,0.50130,0.34002,-0.30019,-0.63439,-4.10827,793.64886,771.13220,0.51375,14.25388,0.63439,-0.26556,6.52233,9.06330,8.79773
87.63899,1.18004,0.08810,-0.19436,-0.11098,0.17860,-1.45546,0.00922,0.01207,2.23818,-0.04628,-0.02324,2.27784,0.50130,0.34002,-0.30019,-0.63439,-4.10880,793.69982,771.13220,0.51367,14.25552,0.63439,-0.26500,6.52233,9.06330,8.79829
87.63999,1.18004,0.08810,-0.19436,-0.11098,0.17860,-1.45546,0.00922,0.01207,2.23818,-0.04628,-0.02324,2.27784,0.50130,0.34002,-0.30019,-0.63439,-4.10880,793.69982,769.80950,0.51367,14.25715,0.63439,-0.26423,6.52233,9.06330,8.79906
87.64099,1.18004,0.08810,-0.19436,-0.09534,0.18591,-1.48018,0.00922,0.01207,2.23818,-0.04628,-0.02324,2.27784,0.50130,0.34002,-0.30019,-0.63439,-4.10952,793.76434,769.80950,0.51360,14.25878,0.62810,-0.26346,6.52241,9.06330,8.79983
87.64199,1.18004,0.08810,-0.19436,-0.09534,0.18591,-1.48018,0.00922,0.01207,2.23818,-0.04628,-0.02324,2.27784,0.50130,0.34002,-0.30019,-0.63439,-4.10952,793.76434,769.80950,0.51360,14.26041,0.62810,-0.26247,6.52241,9.06330,8.80083
87.64299,1.31046,0.29667,-0.11084,-0.09384,0.19368,-1.50167,0.01997,0.01690,2.23818,-0.04718,-0.02202,2.26313,0.49185,0.37133,-0.30019,-0.62810,-4.19727,802.19451,769.80950,0.52030,14.26203,0.62810,-0.26110,6.52241,9.24884,8.98774
87.64399,1.31046,0.29667,-0.11084,-0.09384,0.19368,-1.50167,0.01997,0.01690,2.23818,-0.04718,-0.02202,2.26313,0.49185,0.37133,-0.30019,-0.62810,-4.19727,802.19451,769.80950,0.52030,14.26364,0.62810,-0.25964,6.52241,9.24884,8.98919
87.64499,1.31046,0.29667,-0.11084,-0.09241,0.19604,-1.52340,0.01997,0.01690,2.23818,-0.04718,-0.02202,2.26313,0.49185,0.37133,-0.30019,-0.62810,-4.19863,802.32409,772.45947,0.52029,14.26525,0.62810,-0.25819,6.52241,9.24884,8.99064
87.64600,1.31046,0.29667,-0.11084,-0.09241,0.19604,-1.52340,0.01997,0.01690,2.23818,-0.04718,-0.02202,2.26313,0.49185,0.37133,-0.30019,-0.62810,-4.19863,802.32409,772.45947,0.52029,14.26686,0.62810,-0.25666,6.52241,9.24884,8.99217
87.64700,1.31046,0.29667,-0.11084,-0.07656,0.19783,-1.54521,0.01997,0.01690,2.23818,-0.04718,-0.02202,2.26313,0.49185,0.37133,-0.30019,-0.62810,-4.20006,802.46063,772.45947,0.52029,14.26845,0.62810,-0.25513,6.52241,9.24884,8.99370
87.64800,1.31046,0.29667,-0.11084,-0.07656,0.19783,-1.54521,0.01997,0.01690,2.23818,-0.04718,-0.02202,2.26313,0.49185,0.37133,-0.30019,-0.62810,-4.20006,802.46063,772.45947,0.52029,14.27005,0.62810,-0.25336,6.52241,9.24884,8.99547
87.64900,1.31046,0.29667,-0.11084,-0.06044,0.20504,-1.56325,0.01997,0.01690,2.23818,-0.04718,-0.02202,2.26313,0.49185,0.37133,-0.30019,-0.62810,-4.20171,802.61834,771.79522,0.52030,14.27163,0.62810,-0.25160,6.52241,9.24884,8.99724
87.65000,1.31046,0.29667,-0.11084,-0.06044,0.20504,-1.56325,0.01997,0.01690,2.23818,-0.04718,-0.02202,2.26313,0.49185,0.37133,-0.30019,-0.62810,-4.20171,802.61834,772.45947,0.52030,14.27321,0.62810,-0.24960,6.52241,9.24884,8.99924
87.65100,1.31046,0.29667,-0.11084,-0.06047,0.21335,-1.57778,0.01997,0.01690,2.23818,-0.04718,-0.02202,2.26313,0.49185,0.37133,-0.30019,-0.62810,-4.20358,802.79101,772.45947,0.52032,14.27478,0.62109,-0.24760,6.52250,9.24884,9.00124
87.65200,1.31046,0.29667,-0.11084,-0.06047,0.21335,-1.57778,0.01997,0.01690,2.23818,-0.04718,-0.02202,2.26313,0.49185,0.37133,-0.30019,-0.62810,-4.20358,802.79101,772.45947,0.52032,14.27634,0.62109,-0.24556,6.52250,9.24884,9.00327
87.65299,1.18445,0.32316,-0.03035,-0.06381,0.21684,-1.59366,0.01936,0.01877,2.23818,-0.04773,-0.02058,2.24733,0.48134,0.40430,-0.30019,-0.62109,-4.29714,811.67633,772.45947,0.52739,14.27790,0.62109,-0.24313,6.52250,9.44473,9.20159
87.65399,1.18445,0.32316,-0.03035,-0.06381,0.21684,-1.59366,0.01936,0.01877,2.23818,-0.04773,-0.02058,2.24733,0.48134,0.40430,-0.30019,-0.62109,-4.29714,811.67633,772.45947,0.52739,14.27945,0.62109,-0.24069,6.52250,9.44473,9.20404
87.65499,1.18445,0.32316,-0.03035,-0.05269,0.21960,-1.61208,0.01936,0.01877,2.23818,-0.04773,-0.02058,2.24733,0.48134,0.40430,-0.30019,-0.62109,-4.29942,811.89184,774.45892,0.52745,14.28099,0.62109,-0.23824,6.52250,9.44473,9.20648
87.65599,1.18445,0.32316,-0.03035,-0.05269,0.21960,-1.61208,0.01936,0.01877,2.23818,-0.04773,-0.02058,2.24733,0.48134,0.40430,-0.30019,-0.62109,-4.29942,811.89184,780.51989,0.52745,14.28252,0.62109,-0.23561,6.52250,9.44473,9.20911
87.65699,1.18445,0.32316,-0.03035,-0.03785,0.22736,-1.62894,0.01936,0.01877,2.23818,-0.04773,-0.02058,2.24733,0.48134,0.40430,-0.30019,-0.62109,-4.30188,812.12390,780.51989,0.52752,14.28404,0.62109,-0.23298,6.52250,9.44473,9.21174
87.65799,1.18445,0.32316,-0.03035,-0.03785,0.22736,-1.62894,0.01936,0.01877,2.23818,-0.04773,-0.02058,2.24733,0.48134,0.40430,-0.30019,-0.62109,-4.30188,812.12390,780.51989,0.52752,14.28555,0.62109,-0.23015,6.52250,9.44473,9.21457
87.65899,1.18445,0.32316,-0.03035,-0.03700,0.23585,-1.64259,0.01936,0.01877,2.23818,-0.04773,-0.02058,2.24733,0.48134,0.40430,-0.30019,-0.62109,-4.30452,812.37335,780.51989,0.52761,14.28705,0.62109,-0.22732,6.52250,9.44473,9.21740
87.66000,1.18445,0.32316,-0.03035,-0.03700,0.23585,-1.64259,0.01936,0.01877,2.23818,-0.04773,-0.02058,2.24733,0.48134,0.40430,-0.30019,-0.62109,-4.30452,812.37335,775.79766,0.52761,14.28854,0.62109,-0.22450,6.52250,9.44473,9.22023
87.66100,1.18445,0.32316,-0.03035,-0.04070,0.23904,-1.65598,0.01936,0.01877,2.23818,-0.04773,-0.02058,2.24733,0.48134,0.40430,-0.30019,-0.62109,-4.30716,812.62213,783.92828,0.52770,14.29003,0.62109,-0.22167,6.52250,9.44473,9.22305
87.66200,1.18445,0.32316,-0.03035,-0.04070,0.23904,-1.65598,0.01936,0.01877,2.23818,-0.04773,-0.02058,2.24733,0.48134,0.40430,-0.30019,-0.62109,-4.30716,812.62213,775.79766,0.52770,14.29150,0.62109,-0.21892,6.52250,9.44473,9.22580
87.66300,1.00739,0.32789,0.05296,-0.03158,0.24120,-1.66961,0.01175,0.02050,2.23818,-0.04802,-0.01891,2.23075,0.48134,0.40430,-0.30019,-0.62109,-4.30936,812.82910,783.92828,0.52776,14.29296,0.62109,-0.21618,6.52250,9.44393,9.22775
87.66400,1.00739,0.32789,0.05296,-0.03158,0.24120,-1.66961,0.01175,0.02050,2.23818,-0.04802,-0.01891,2.23075,0.48134,0.40430,-0.30019,-0.62109,-4.30936,812.82910,783.92828,0.52776,14.29441,0.62109,-0.21335,6.52250,9.44393,9.23058
87.66500,1.00739,0.32789,0.05296,-0.01869,0.24858,-1.67996,0.01175,0.02050,2.23818,-0.04802,-0.01891,2.23075,0.48134,0.40430,-0.30019,-0.62109,-4.31200,813.07812,783.92828,0.52785,14.29584,0.62109,-0.21052,6.52250,9.44393,9.23340
87.66600,1.00739,0.32789,0.05296,-0.01869,0.24858,-1.67996,0.01175,0.02050,2.23818,-0.04802,-0.01891,2.23075,0.48134,0.40430,-0.30019,-0.62109,-4.31200,813.07812,786.67651,0.52785,14.29727,0.62109,-0.20759,6.52250,9.44393,9.23633
87.66699,1.00739,0.32789,0.05296,-0.01960,0.25693,-1.68697,0.01175,0.02050,2.23818,-0.04802,-0.01891,2.23075,0.48134,0.40430,-0.30019,-0.62109,-4.31473,813.33587,786.67651,0.52796,14.29868,0.62109,-0.20467,6.52250,9.44393,9.23926
87.66799,1.00739,0.32789,0.05296,-0.01960,0.25693,-1.68697,0.01175,0.02050,2.23818,-0.04802,-0.01891,2.23075,0.48134,0.40430,-0.30019,-0.62109,-4.31473,813.33587,788.05786,0.52796,14.30008,0.62109,-0.20185,6.52250,9.44393,9.24207
87.66899,1.00739,0.32789,0.05296,-0.02573,0.25953,-1.69568,0.01175,0.02050,2.23818,-0.04802,-0.01891,2.23075,0.48134,0.40430,-0.30019,-0.62109,-4.31736,813.58380,788.05786,0.52805,14.30147,0.62109,-0.19903,6.52250,9.44393,9.24489
87.66999,1.00739,0.32789,0.05296,-0.02573,0.25953,-1.69568,0.01175,0.02050,2.23818,-0.04802,-0.01891,2.23075,0.48134,0.40430,-0.30019,-0.62109,-4.31736,813.58380,788.75036,0.52805,14.30284,0.62109,-0.19642,6.52250,9.44393,9.24750
87.67099,1.00739,0.32789,0.05296,-0.01930,0.26010,-1.70760,0.01175,0.02050,2.23818,-0.04802,-0.01891,2.23075,0.48134,0.40430,-0.30019,-0.62109,-4.31980,813.80725,788.75036,0.52813,14.30420,0.61380,-0.19381,6.52260,9.44393,9.25012
87.67199,1.00739,0.32789,0.05296,-0.01930,0.26010,-1.70760,0.01175,0.02050,2.23818,-0.04802,-0.01891,2.23075,0.48134,0.40430,-0.30019,-0.62109,-4.31980,813.80725,788.75036,0.52813,14.30555,0.61380,-0.19124,6.52260,9.44393,9.25268
87.67299,1.17353,0.23913,0.13456,-0.00855,0.26541,-1.71798,0.01753,0.01767,2.23818,-0.04817,-0.01698,2.21360,0.47040,0.43016,-0.30019,-0.61380,-4.39987,821.31494,790.13897,0.53409,14.30688,0.61380,-0.18835,6.52260,9.60993,9.42158
87.67400,1.17353,0.23913,0.13456,-0.00855,0.26541,-1.71798,0.01753,0.01767,2.23818,-0.04817,-0.01698,2.21360,0.47040,0.43016,-0.30019,-0.61380,-4.39987,821.31494,788.75036,0.53409,14.30820,0.61380,-0.18542,6.52260,9.60993,9.42450
87.67500,1.17353,0.23913,0.13456,-0.01137,0.27216,-1.72441,0.01753,0.01767,2.23818,-0.04817,-0.01698,2.21360,0.47040,0.43016,-0.30019,-0.61380,-4.40260,821.56970,788.75036,0.53420,14.30951,0.61380,-0.18250,6.52260,9.60993,9.42742
87.67600,1.17353,0.23913,0.13456,-0.01137,0.27216,-1.72441,0.01753,0.01767,2.23818,-0.04817,-0.01698,2.21360,0.47040,0.43016,-0.30019,-0.61380,-4.40260,821.56970,790.13897,0.53420,14.31080,0.61380,-0.17968,6.52260,9.60993,9.43024
87.67700,1.17353,0.23913,0.13456,-0.01940,0.27360,-1.73065,0.01753,0.01767,2.23818,-0.04817,-0.01698,2.21360,0.47040,0.43016,-0.30019,-0.61380,-4.40523,821.81500,792.23114,0.53430,14.31208,0.61380,-0.17687,6.52260,9.60993,9.43305
87.67800,1.17353,0.23913,0.13456,-0.01940,0.27360,-1.73065,0.01753,0.01767,2.23818,-0.04817,-0.01698,2.21360,0.47040,0.43016,-0.30019,-0.61380,-4.40523,821.81500,792.23114,0.53430,14.31335,0.61380,-0.17421,6.52260,9.60993,9.43572
87.67900,1.17353,0.23913,0.13456,-0.01393,0.27249,-1.73903,0.01753,0.01767,2.23818,-0.04817,-0.01698,2.21360,0.47040,0.43016,-0.30019,-0.61380,-4.40772,822.04699,792.23114,0.53439,14.31460,0.61380,-0.17154,6.52260,9.60993,9.43838
87.68000,1.17353,0.23913,0.13456,-0.01393,0.27249,-1.73903,0.01753,0.01767,2.23818,-0.04817,-0.01698,2.21360,0.47040,0.43016,-0.30019,-0.61380,-4.40772,822.04699,792.23114,0.53439,14.31583,0.61380,-0.16889,6.52260,9.60993,9.44103
87.68099,1.17353,0.23913,0.13456,-0.00245,0.27509,-1.74612,0.01753,0.01767,2.23818,-0.04817,-0.01698,2.21360,0.47040,0.43016,-0.30019,-0.61380,-4.41020,822.27789,792.23114,0.53448,14.31706,0.61380,-0.16624,6.52260,9.60993,9.44368
87.68199,1.17353,0.23913,0.13456,-0.00245,0.27509,-1.74612,0.01753,0.01767,2.23818,-0.04817,-0.01698,2.21360,0.47040,0.43016,-0.30019,-0.61380,-4.41020,822.27789,792.23114,0.53448,14.31826,0.61380,-0.16357,6.52260,9.60993,9.44635
87.68299,1.04439,0.27186,0.22398,-0.00396,0.27889,-1.74961,0.01225,0.01933,2.23818,-0.04824,-0.01491,2.19605,0.47040,0.43016,-0.30019,-0.61380,-4.41247,822.49017,792.23114,0.53457,14.31945,0.61380,-0.16090,6.52260,9.60947,9.44856
87.68399,1.04439,0.27186,0.22398,-0.00396,0.27889,-1.74961,0.01225,0.01933,2.23818,-0.04824,-0.01491,2.19605,0.47040,0.43016,-0.30019,-0.61380,-4.41247,822.49017,792.23114,0.53457,14.32063,0.61380,-0.15836,6.52260,9.60947,9.45110
87.68499,1.04439,0.27186,0.22398,-0.01221,0.27864,-1.75252,0.01225,0.01933,2.23818,-0.04824,-0.01491,2.19605,0.47040,0.43016,-0.30019,-0.61380,-4.41485,822.71160,788.75036,0.53466,14.32179,0.61380,-0.15581,6.52260,9.60947,9.45365
87.68599,1.04439,0.27186,0.22398,-0.01221,0.27864,-1.75252,0.01225,0.01933,2.23818,-0.04824,-0.01491,2.19605,0.47040,0.43016,-0.30019,-0.61380,-4.41485,822.71160,788.75036,0.53466,14.32294,0.61380,-0.15341,6.52260,9.60947,9.45605
87.68699,1.04439,0.27186,0.22398,-0.00915,0.27741,-1.75705,0.01225,0.01933,2.23818,-0.04824,-0.01491,2.19605,0.47040,0.43016,-0.30019,-0.61380,-4.41710,822.92102,788.75036,0.53474,14.32406,0.61380,-0.15100,6.52260,9.60947,9.45846
87.68800,1.04439,0.27186,0.22398,-0.00915,0.27741,-1.75705,0.01225,0.01933,2.23818,-0.04824,-0.01491,2.19605,0.47040,0.43016,-0.30019,-0.61380,-4.41710,822.92102,788.75036,0.53474,14.32517,0.61380,-0.14858,6.52260,9.60947,9.46088
87.68900,1.04439,0.27186,0.22398,-0.00033,0.28016,-1.76058,0.01225,0.01933,2.23818,-0.04824,-0.01491,2.19605,0.47040,0.43016,-0.30019,-0.61380,-4.41935,823.13110,799.28570,0.53483,14.32627,0.61380,-0.14617,6.52260,9.60947,9.46329
87.69000,1.04439,0.27186,0.22398,-0.00033,0.28016,-1.76058,0.01225,0.01933,2.23818,-0.04824,-0.01491,2.19605,0.47040,0.43016,-0.30019,-0.61380,-4.41935,823.13110,810.83819,0.53483,14.32735,0.61380,-0.14374,6.52260,9.60947,9.46572
87.69100,1.04439,0.27186,0.22398,-0.00203,0.28348,-1.76119,0.01225,0.01933,2.23818,-0.04824,-0.01491,2.19605,0.47040,0.43016,-0.30019,-0.61380,-4.42162,823.33770,810.83819,0.53491,14.32841,0.60889,-0.14131,6.52268,9.60947,9.46815
87.69200,1.04439,0.27186,0.22398,-0.00203,0.28348,-1.76119,0.01225,0.01933,2.23818,-0.04824,-0.01491,2.19605,0.47040,0.43016,-0.30019,-0.61380,-4.42162,823.33770,810.83819,0.53491,14.32945,0.60889,-0.13901,6.52268,9.60947,9.47045
87.69300,1.11814,-0.01425,0.29908,-0.00784,0.28284,-1.76105,0.01419,0.00561,2.23818,-0.04834,-0.01279,2.17829,0.46304,0.44073,-0.30019,-0.60889,-4.46085,826.98156,810.10638,0.53777,14.33048,0.60889,-0.13656,6.52268,9.68871,9.55214
87.69400,1.11814,-0.01425,0.29908,-0.00784,0.28284,-1.76105,0.01419,0.00561,2.23818,-0.04834,-0.01279,2.17829,0.46304,0.44073,-0.30019,-0.60889,-4.46085,826.98156,810.10638,0.53777,14.33150,0.60889,-0.13426,6.52268,9.68871,9.55445
87.69499,1.11814,-0.01425,0.29908,-0.00251,0.28218,-1.76119,0.01419,0.00561,2.23818,-0.04834,-0.01279,2.17829,0.46304,0.44073,-0.30019,-0.60889,-4.46300,827.18115,810.10638,0.53785,14.33249,0.60889,-0.13195,6.52268,9.68871,9.55676
87.69599,1.11814,-0.01425,0.29908,-0.00251,0.28218,-1.76119,0.01419,0.00561,2.23818,-0.04834,-0.01279,2.17829,0.46304,0.44073,-0.30019,-0.60889,-4.46300,827.18115,810.10638,0.53785,14.33347,0.60889,-0.12965,6.52268,9.68871,9.55906
87.69699,1.11814,-0.01425,0.29908,0.00630,0.28529,-1.75890,0.01419,0.00561,2.23818,-0.04834,-0.01279,2.17829,0.46304,0.44073,-0.30019,-0.60889,-4.46515,827.38018,810.10638,0.53794,14.33443,0.60889,-0.12735,6.52268,9.68871,9.56136
87.69799,1.11814,-0.01425,0.29908,0.00630,0.28529,-1.75890,0.01419,0.00561,2.23818,-0.04834,-0.01279,2.17829,0.46304,0.44073,-0.30019,-0.60889,-4.46515,827.38018,805.74316,0.53794,14.33537,0.60889,-0.12506,6.52268,9.68871,9.56364
87.69899,1.11814,-0.01425,0.29908,0.00389,0.28680,-1.75366,0.01419,0.00561,2.23818,-0.04834,-0.01279,2.17829,0.46304,0.44073,-0.30019,-0.60889,-4.46729,827.57800,799.99810,0.53803,14.33630,0.60889,-0.12278,6.52268,9.68871,9.56593
87.69999,1.11814,-0.01425,0.29908,0.00389,0.28680,-1.75366,0.01419,0.00561,2.23818,-0.04834,-0.01279,2.17829,0.46304,0.44073,-0.30019,-0.60889,-4.46729,827.57800,799.99810,0.53803,14.33721,0.60889,-0.12066,6.52268,9.68871,9.56805
87.70099,1.11814,-0.01425,0.29908,-0.00087,0.28261,-1.74915,0.01419,0.00561,2.23818,-0.04834,-0.01279,2.17829,0.46304,0.44073,-0.30019,-0.60889,-4.46926,827.75299,799.99810,0.53810,14.33810,0.60120,-0.11854,6.52281,9.68871,9.57016
87.70200,1.11814,-0.01425,0.29908,-0.00087,0.28261,-1.74915,0.01419,0.00561,2.23818,-0.04834,-0.01279,2.17829,0.46304,0.44073,-0.30019,-0.60889,-4.46926,827.75299,798.57464,0.53810,14.33897,0.60120,-0.11657,6.52281,9.68871,9.57214
87.70300,1.18902,0.19285,0.39783,0.00651,0.27942,-1.74632,0.01804,0.01136,2.23818,-0.04842,-0.01065,2.16057,0.45149,0.45830,-0.30019,-0.60120,-4.53294,833.62921,799.99810,0.54276,14.33983,0.60120,-0.11433,6.52281,9.82086,9.70652
87.70400,1.18902,0.19285,0.39783,0.00651,0.27942,-1.74632,0.01804,0.01136,2.23818,-0.04842,-0.01065,2.16057,0.45149,0.45830,-0.30019,-0.60120,-4.53294,833.62921,799.99810,0.54276,14.34067,0.60120,-0.11205,6.52281,9.82086,9.70881
87.70500,1.18902,0.19285,0.39783,0.01585,0.28283,-1.74134,0.01804,0.01136,2.23818,-0.04842,-0.01065,2.16057,0.45149,0.45830,-0.30019,-0.60120,-4.53508,833.82556,798.57464,0.54286,14.34150,0.60120,-0.10976,6.52281,9.82086,9.71109
87.70600,1.18902,0.19285,0.39783,0.01585,0.28283,-1.74134,0.01804,0.01136,2.23818,-0.04842,-0.01065,2.16057,0.45149,0.45830,-0.30019,-0.60120,-4.53508,833.82556,799.28570,0.54286,14.34230,0.60120,-0.10740,6.52281,9.82086,9.71345
87.70700,1.18902,0.19285,0.39783,0.01217,0.28666,-1.73286,0.01804,0.01136,2.23818,-0.04842,-0.01065,2.16057,0.45149,0.45830,-0.30019,-0.60120,-4.53728,834.02813,799.28570,0.54296,14.34309,0.60120,-0.10504,6.52281,9.82086,9.71581
87.70800,1.18902,0.19285,0.39783,0.01217,0.28666,-1.73286,0.01804,0.01136,2.23818,-0.04842,-0.01065,2.16057,0.45149,0.45830,-0.30019,-0.60120,-4.53728,834.02813,798.57464,0.54296,14.34386,0.60120,-0.10274,6.52281,9.82086,9.71811
87.70899,1.18902,0.19285,0.39783,0.00653,0.28471,-1.72413,0.01804,0.01136,2.23818,-0.04842,-0.01065,2.16057,0.45149,0.45830,-0.30019,-0.60120,-4.53943,834.22515,799.28570,0.54306,14.34461,0.60120,-0.10045,6.52281,9.82086,9.72041
87.70999,1.18902,0.19285,0.39783,0.00653,0.28471,-1.72413,0.01804,0.01136,2.23818,-0.04842,-0.01065,2.16057,0.45149,0.45830,-0.30019,-0.60120,-4.53943,834.22515,799.28570,0.54306,14.34535,0.60120,-0.09820,6.52281,9.82086,9.72265
87.71099,1.18902,0.19285,0.39783,0.01519,0.28164,-1.71595,0.01804,0.01136,2.23818,-0.04842,-0.01065,2.16057,0.45149,0.45830,-0.30019,-0.60120,-4.54153,834.41809,800.71173,0.54316,14.34606,0.60120,-0.09595,6.52281,9.82086,9.72490
87.71199,1.18902,0.19285,0.39783,0.01519,0.28164,-1.71595,0.01804,0.01136,2.23818,-0.04842,-0.01065,2.16057,0.45149,0.45830,-0.30019,-0.60120,-4.54153,834.41809,800.71173,0.54316,14.34676,0.60120,-0.09362,6.52281,9.82086,9.72724
87.71299,1.07874,0.22022,0.48635,0.02802,0.28250,-1.70513,0.01402,0.01417,2.23818,-0.04839,-0.00851,2.14315,0.45149,0.45830,-0.30019,-0.60120,-4.54358,834.60644,817.48443,0.54326,14.34744,0.60120,-0.09128,6.52281,9.82058,9.72929
87.71399,1.07874,0.22022,0.48635,0.02802,0.28250,-1.70513,0.01402,0.01417,2.23818,-0.04839,-0.00851,2.14315,0.45149,0.45830,-0.30019,-0.60120,-4.54358,834.60644,817.48443,0.54326,14.34811,0.60120,-0.08892,6.52281,9.82058,9.73165
87.71499,1.07874,0.22022,0.48635,0.02896,0.28335,-1.69189,0.01402,0.01417,2.23818,-0.04839,-0.00851,2.14315,0.45149,0.45830,-0.30019,-0.60120,-4.54578,834.80895,817.48443,0.54338,14.34876,0.60120,-0.08656,6.52281,9.82058,9.73402
87.71600,1.07874,0.22022,0.48635,0.02896,0.28335,-1.69189,0.01402,0.01417,2.23818,-0.04839,-0.00851,2.14315,0.45149,0.45830,-0.30019,-0.60120,-4.54578,834.80895,817.48443,0.54338,14.34939,0.60120,-0.08435,6.52281,9.82058,9.73622
87.71700,1.07874,0.22022,0.48635,0.02650,0.28128,-1.68098,0.01402,0.01417,2.23818,-0.04839,-0.00851,2.14315,0.45149,0.45830,-0.30019,-0.60120,-4.54784,834.99822,817.48443,0.54348,14.35000,0.60120,-0.08214,6.52281,9.82058,9.73843
87.71800,1.07874,0.22022,0.48635,0.02650,0.28128,-1.68098,0.01402,0.01417,2.23818,-0.04839,-0.00851,2.14315,0.45149,0.45830,-0.30019,-0.60120,-4.54784,834.99822,817.48443,0.54348,14.35060,0.60120,-0.08003,6.52281,9.82058,9.74054
87.71900,1.07874,0.22022,0.48635,0.03373,0.28147,-1.67335,0.01402,0.01417,2.23818,-0.04839,-0.00851,2.14315,0.45149,0.45830,-0.30019,-0.60120,-4.54982,835.17926,817.48443,0.54358,14.35119,0.60120,-0.07792,6.52281,9.82058,9.74265
87.72000,1.07874,0.22022,0.48635,0.03373,0.28147,-1.67335,0.01402,0.01417,2.23818,-0.04839,-0.00851,2.14315,0.45149,0.45830,-0.30019,-0.60120,-4.54982,835.17926,817.48443,0.54358,14.35175,0.60120,-0.07572,6.52281,9.82058,9.74485
87.72100,1.07874,0.22022,0.48635,0.04094,0.28567,-1.66447,0.01402,0.01417,2.23818,-0.04839,-0.00851,2.14315,0.45149,0.45830,-0.30019,-0.60120,-4.55187,835.35845,814.51715,0.54368,14.35230,0.59309,-0.07352,6.52296,9.82058,9.74706
87.72200,1.07874,0.22022,0.48635,0.04094,0.28567,-1.66447,0.01402,0.01417,2.23818,-0.04839,-0.00851,2.14315,0.45149,0.45830,-0.30019,-0.60120,-4.55187,835.35845,817.48443,0.54368,14.35282,0.59309,-0.07128,6.52296,9.82058,9.74930
87.72299,1.21377,0.00866,0.56050,0.03714,0.28658,-1.65258,0.01995,0.00537,2.23818,-0.04816,-0.00633,2.12629,0.43934,0.47946,-0.30019,-0.59309,-4.62418,841.96759,814.51715,0.54895,14.35333,0.59309,-0.06874,6.52296,9.97064,9.90190
87.72399,1.21377,0.00866,0.56050,0.03714,0.28658,-1.65258,0.01995,0.00537,2.23818,-0.04816,-0.00633,2.12629,0.43934,0.47946,-0.30019,-0.59309,-4.62418,841.96759,814.51715,0.54895,14.35383,0.59309,-0.06634,6.52296,9.97064,9.90430
87.72499,1.21377,0.00866,0.56050,0.03473,0.28150,-1.64097,0.01995,0.00537,2.23818,-0.04816,-0.00633,2.12629,0.43934,0.47946,-0.30019,-0.59309,-4.62642,842.17150,807.91894,0.54908,14.35430,0.59309,-0.06394,6.52296,9.97064,9.90670
87.72599,1.21377,0.00866,0.56050,0.03473,0.28150,-1.64097,0.01995,0.00537,2.23818,-0.04816,-0.00633,2.12629,0.43934,0.47946,-0.30019,-0.59309,-4.62642,842.17150,807.91894,0.54908,14.35476,0.59309,-0.06164,6.52296,9.97064,9.90900
87.72699,1.21377,0.00866,0.56050,0.04488,0.27793,-1.63057,0.01995,0.00537,2.23818,-0.04816,-0.00633,2.12629,0.43934,0.47946,-0.30019,-0.59309,-4.62858,842.36718,800.71173,0.54920,14.35520,0.59309,-0.05934,6.52296,9.97064,9.91130
87.72799,1.21377,0.00866,0.56050,0.04488,0.27793,-1.63057,0.01995,0.00537,2.23818,-0.04816,-0.00633,2.12629,0.43934,0.47946,-0.30019,-0.59309,-4.62858,842.36718,807.91894,0.54920,14.35562,0.59309,-0.05700,6.52296,9.97064,9.91364
87.72899,1.21377,0.00866,0.56050,0.05412,0.27938,-1.61810,0.01995,0.00537,2.23818,-0.04816,-0.00633,2.12629,0.43934,0.47946,-0.30019,-0.59309,-4.63076,842.56616,807.91894,0.54933,14.35603,0.59309,-0.05465,6.52296,9.97064,9.91598
87.73000,1.21377,0.00866,0.56050,0.05412,0.27938,-1.61810,0.01995,0.00537,2.23818,-0.04816,-0.00633,2.12629,0.43934,0.47946,-0.30019,-0.59309,-4.63076,842.56616,807.19238,0.54933,14.35642,0.59309,-0.05237,6.52296,9.97064,9.91827
87.73100,1.21377,0.00866,0.56050,0.05094,0.27972,-1.60306,0.01995,0.00537,2.23818,-0.04816,-0.00633,2.12629,0.43934,0.47946,-0.30019,-0.59309,-4.63289,842.74890,807.19238,0.54945,14.35679,0.58470,-0.05009,6.52313,9.97064,9.92055
87.73200,1.21377,0.00866,0.56050,0.05094,0.27972,-1.60306,0.01995,0.00537,2.23818,-0.04816,-0.00633,2.12629,0.43934,0.47946,-0.30019,-0.59309,-4.63289,842.74890,807.19238,0.54945,14.35715,0.58470,-0.04803,6.52313,9.97064,9.92261
87.73300,1.29808,-0.04877,0.63939,0.04852,0.27632,-1.58887,0.02670,-0.00019,2.23818,-0.04782,-0.00410,2.10998,0.42674,0.49526,-0.30019,-0.58470,-4.69532,848.40802,807.19238,0.55397,14.35749,0.58470,-0.04570,6.52313,10.09993,10.05423
87.73400,1.29808,-0.04877,0.63939,0.04852,0.27632,-1.58887,0.02670,-0.00019,2.23818,-0.04782,-0.00410,2.10998,0.42674,0.49526,-0.30019,-0.58470,-4.69532,848.40802,810.83819,0.55397,14.35781,0.58470,-0.04349,6.52313,10.09993,10.05644
87.73500,1.29808,-0.04877,0.63939,0.05745,0.27443,-1.57598,0.02670,-0.00019,2.23818,-0.04782,-0.00410,2.10998,0.42674,0.49526,-0.30019,-0.58470,-4.69738,848.59417,810.83819,0.55409,14.35812,0.58470,-0.04129,6.52313,10.09993,10.05864
87.73600,1.29808,-0.04877,0.63939,0.05745,0.27443,-1.57598,0.02670,-0.00019,2.23818,-0.04782,-0.00410,2.10998,0.42674,0.49526,-0.30019,-0.58470,-4.69738,848.59417,816.74053,0.55409,14.35840,0.58470,-0.03906,6.52313,10.09993,10.06087
87.73699,1.29808,-0.04877,0.63939,0.06466,0.27455,-1.56146,0.02670,-0.00019,2.23818,-0.04782,-0.00410,2.10998,0.42674,0.49526,-0.30019,-0.58470,-4.69946,848.78179,816.74053,0.55422,14.35867,0.58470,-0.03684,6.52313,10.09993,10.06309
87.73799,1.29808,-0.04877,0.63939,0.06466,0.27455,-1.56146,0.02670,-0.00019,2.23818,-0.04782,-0.00410,2.10998,0.42674,0.49526,-0.30019,-0.58470,-4.69946,848.78179,816.74053,0.55422,14.35893,0.58470,-0.03470,6.52313,10.09993,10.06523
87.73899,1.29808,-0.04877,0.63939,0.06108,0.27068,-1.54541,0.02670,-0.00019,2.23818,-0.04782,-0.00410,2.10998,0.42674,0.49526,-0.30019,-0.58470,-4.70146,848.96209,816.74053,0.55435,14.35916,0.58470,-0.03256,6.52313,10.09993,10.06736
87.73999,1.29808,-0.04877,0.63939,0.06108,0.27068,-1.54541,0.02670,-0.00019,2.23818,-0.04782,-0.00410,2.10998,0.42674,0.49526,-0.30019,-0.58470,-4.70146,848.96209,819.72406,0.55435,14.35938,0.58470,-0.03060,6.52313,10.09993,10.06933
87.74099,1.29808,-0.04877,0.63939,0.05970,0.26330,-1.53027,0.02670,-0.00019,2.23818,-0.04782,-0.00410,2.10998,0.42674,0.49526,-0.30019,-0.58470,-4.70329,849.11962,819.72406,0.55446,14.35958,0.57899,-0.02863,6.52326,10.09993,10.07130
87.74199,1.29808,-0.04877,0.63939,0.05970,0.26330,-1.53027,0.02670,-0.00019,2.23818,-0.04782,-0.00410,2.10998,0.42674,0.49526,-0.30019,-0.58470,-4.70329,849.11962,820.47338,0.55446,14.35976,0.57899,-0.02668,6.52326,10.09993,10.07324
87.74299,0.97942,0.05062,0.72224,0.06751,0.25889,-1.51467,0.01393,0.00219,2.23818,-0.04738,-0.00195,2.09437,0.41820,0.50962,-0.30019,-0.57899,-4.75214,853.51782,824.24047,0.55798,14.35992,0.57899,-0.02454,6.52326,10.20044,10.17590
87.74400,0.97942,0.05062,0.72224,0.06751,0.25889,-1.51467,0.01393,0.00219,2.23818,-0.04738,-0.00195,2.09437,0.41820,0.50962,-0.30019,-0.57899,-4.75214,853.51782,820.47338,0.55798,14.36006,0.57899,-0.02229,6.52326,10.20044,10.17814
87.74500,0.97942,0.05062,0.72224,0.07140,0.25641,-1.49558,0.01393,0.00219,2.23818,-0.04738,-0.00195,2.09437,0.41820,0.50962,-0.30019,-0.57899,-4.75424,853.70593,820.47338,0.55812,14.36019,0.57899,-0.02005,6.52326,10.20044,10.18039
87.74600,0.97942,0.05062,0.72224,0.07140,0.25641,-1.49558,0.01393,0.00219,2.23818,-0.04738,-0.00195,2.09437,0.41820,0.50962,-0.30019,-0.57899,-4.75424,853.70593,820.47338,0.55812,14.36030,0.57899,-0.01787,6.52326,10.20044,10.18257
87.74700,0.97942,0.05062,0.72224,0.06742,0.24938,-1.47501,0.01393,0.00219,2.23818,-0.04738,-0.00195,2.09437,0.41820,0.50962,-0.30019,-0.57899,-4.75628,853.88909,819.72406,0.55826,14.36040,0.57899,-0.01568,6.52326,10.20044,10.18476
87.74800,0.97942,0.05062,0.72224,0.06742,0.24938,-1.47501,0.01393,0.00219,2.23818,-0.04738,-0.00195,2.09437,0.41820,0.50962,-0.30019,-0.57899,-4.75628,853.88909,820.47338,0.55826,14.36048,0.57899,-0.01367,6.52326,10.20044,10.18676
87.74900,0.97942,0.05062,0.72224,0.06998,0.24019,-1.45708,0.01393,0.00219,2.23818,-0.04738,-0.00195,2.09437,0.41820,0.50962,-0.30019,-0.57899,-4.75815,854.05749,820.47338,0.55839,14.36054,0.57899,-0.01166,6.52326,10.20044,10.18877
87.75000,0.97942,0.05062,0.72224,0.06998,0.24019,-1.45708,0.01393,0.00219,2.23818,-0.04738,-0.00195,2.09437,0.41820,0.50962,-0.30019,-0.57899,-4.75815,854.05749,821.22412,0.55839,14.36058,0.57899,-0.00969,6.52326,10.20044,10.19075
87.75099,0.97942,0.05062,0.72224,0.08068,0.23639,-1.44075,0.01393,0.00219,2.23818,-0.04738,-0.00195,2.09437,0.41820,0.50962,-0.30019,-0.57899,-4.76000,854.22290,821.22412,0.55852,14.36061,0.57899,-0.00772,6.52326,10.20044,10.19272
87.75199,0.97942,0.05062,0.72224,0.08068,0.23639,-1.44075,0.01393,0.00219,2.23818,-0.04738,-0.00195,2.09437,0.41820,0.50962,-0.30019,-0.57899,-4.76000,854.22290,821.22412,0.55852,14.36062,0.57899,-0.00568,6.52326,10.20044,10.19476
87.75299,1.05649,0.11976,0.79916,0.08307,0.23595,-1.42281,0.01377,0.00636,2.23818,-0.04675,-0.00004,2.07964,0.41820,0.50962,-0.30019,-0.57899,-4.76198,854.40057,821.22412,0.55866,14.36061,0.57899,-0.00364,6.52326,10.20060,10.19696
87.75399,1.05649,0.11976,0.79916,0.08307,0.23595,-1.42281,0.01377,0.00636,2.23818,-0.04675,-0.00004,2.07964,0.41820,0.50962,-0.30019,-0.57899,-4.76198,854.40057,817.48443,0.55866,14.36059,0.57899,-0.00165,6.52326,10.20060,10.19895
87.75499,1.05649,0.11976,0.79916,0.07661,0.23175,-1.40475,0.01377,0.00636,2.23818,-0.04675,-0.00004,2.07964,0.41820,0.50962,-0.30019,-0.57899,-4.76384,854.56738,817.48443,0.55880,14.36054,0.57899,0.00034,6.52326,10.20060,10.20094
87.75599,1.05649,0.11976,0.79916,0.07661,0.23175,-1.40475,0.01377,0.00636,2.23818,-0.04675,-0.00004,2.07964,0.41820,0.50962,-0.30019,-0.57899,-4.76384,854.56738,821.22412,0.55880,14.36048,0.57899,0.00224,6.52326,10.20060,10.20285
87.75700,1.05649,0.11976,0.79916,0.07919,0.22582,-1.38930,0.01377,0.00636,2.23818,-0.04675,-0.00004,2.07964,0.41820,0.50962,-0.30019,-0.57899,-4.76562,854.72698,817.48443,0.55893,14.36041,0.57899,0.00415,6.52326,10.20060,10.20475
87.75800,1.05649,0.11976,0.79916,0.07919,0.22582,-1.38930,0.01377,0.00636,2.23818,-0.04675,-0.00004,2.07964,0.41820,0.50962,-0.30019,-0.57899,-4.76562,854.72698,821.22412,0.55893,14.36032,0.57899,0.00611,6.52326,10.20060,10.20671
87.75900,1.05649,0.11976,0.79916,0.09148,0.22375,-1.37424,0.01377,0.00636,2.23818,-0.04675,-0.00004,2.07964,0.41820,0.50962,-0.30019,-0.57899,-4.76745,854.89105,821.22412,0.55907,14.36021,0.57899,0.00806,6.52326,10.20060,10.20867
87.76000,1.05649,0.11976,0.79916,0.09148,0.22375,-1.37424,0.01377,0.00636,2.23818,-0.04675,-0.00004,2.07964,0.41820,0.50962,-0.30019,-0.57899,-4.76745,854.89105,821.22412,0.55907,14.36008,0.57899,0.01010,6.52326,10.20060,10.21070
87.76100,1.05649,0.11976,0.79916,0.09606,0.22252,-1.35632,0.01377,0.00636,2.23818,-0.04675,-0.00004,2.07964,0.41820,0.50962,-0.30019,-0.57899,-4.76934,855.06115,824.99804,0.55922,14.35994,0.57899,0.01213,6.52326,10.20060,10.21273
87.76200,1.05649,0.11976,0.79916,0.09606,0.22252,-1.35632,0.01377,0.00636,2.23818,-0.04675,-0.00004,2.07964,0.41820,0.50962,-0.30019,-0.57899,-4.76934,855.06115,824.99804,0.55922,14.35978,0.57899,0.01409,6.52326,10.20060,10.21470
87.76300,1.08079,0.10782,0.86776,0.09259,0.21765,-1.33739,0.01371,0.00821,2.23818,-0.04601,0.00170,2.06580,0.41820,0.50962,-0.30019,-0.57899,-4.77124,855.23089,826.51739,0.55937,14.35960,0.57899,0.01606,6.52326,10.20073,10.21679
87.76399,1.08079,0.10782,0.86776,0.09259,0.21765,-1.33739,0.01371,0.00821,2.23818,-0.04601,0.00170,2.06580,0.41820,0.50962,-0.30019,-0.57899,-4.77124,855.23089,828.04235,0.55937,14.35941,0.57899,0.01794,6.52326,10.20073,10.21868
87.76499,1.08079,0.10782,0.86776,0.09647,0.21330,-1.32035,0.01371,0.00821,2.23818,-0.04601,0.00170,2.06580,0.41820,0.50962,-0.30019,-0.57899,-4.77300,855.38897,831.10913,0.55951,14.35921,0.57899,0.01983,6.52326,10.20073,10.22057
87.76599,1.08079,0.10782,0.86776,0.09647,0.21330,-1.32035,0.01371,0.00821,2.23818,-0.04601,0.00170,2.06580,0.41820,0.50962,-0.30019,-0.57899,-4.77300,855.38897,831.10913,0.55951,14.35898,0.57899,0.02175,6.52326,10.20073,10.22248
87.76699,1.08079,0.10782,0.86776,0.10630,0.21302,-1.30379,0.01371,0.00821,2.23818,-0.04601,0.00170,2.06580,0.41820,0.50962,-0.30019,-0.57899,-4.77479,855.54943,831.87939,0.55966,14.35875,0.57899,0.02367,6.52326,10.20073,10.22440
87.76799,1.08079,0.10782,0.86776,0.10630,0.21302,-1.30379,0.01371,0.00821,2.23818,-0.04601,0.00170,2.06580,0.41820,0.50962,-0.30019,-0.57899,-4.77479,855.54943,834.97479,0.55966,14.35850,0.57899,0.02555,6.52326,10.20073,10.22629
87.76899,1.08079,0.10782,0.86776,0.10936,0.21163,-1.28601,0.01371,0.00821,2.23818,-0.04601,0.00170,2.06580,0.41820,0.50962,-0.30019,-0.57899,-4.77655,855.70715,834.97479,0.55980,14.35823,0.57899,0.02744,6.52326,10.20073,10.22817
87.76999,1.08079,0.10782,0.86776,0.10936,0.21163,-1.28601,0.01371,0.00821,2.23818,-0.04601,0.00170,2.06580,0.41820,0.50962,-0.30019,-0.57899,-4.77655,855.70715,834.97479,0.55980,14.35795,0.57899,0.02914,6.52326,10.20073,10.22988
87.77100,1.08079,0.10782,0.86776,0.11059,0.20640,-1.26872,0.01371,0.00821,2.23818,-0.04601,0.00170,2.06580,0.41820,0.50962,-0.30019,-0.57899,-4.77815,855.83612,834.97479,0.55993,14.35765,0.57030,0.03085,6.52347,10.20073,10.23159
87.77200,1.08079,0.10782,0.86776,0.11059,0.20640,-1.26872,0.01371,0.00821,2.23818,-0.04601,0.00170,2.06580,0.41820,0.50962,-0.30019,-0.57899,-4.77815,855.83612,834.19879,0.55993,14.35734,0.57030,0.03243,6.52347,10.20073,10.23316
87.77300,1.20397,-0.08059,0.92412,0.12094,0.20345,-1.25257,0.01991,0.00041,2.23818,-0.04504,0.00339,2.05282,0.40514,0.51779,-0.30019,-0.57030,-4.82465,859.99035,831.87939,0.56329,14.35702,0.57030,0.03419,6.52347,10.29696,10.33116
87.77400,1.20397,-0.08059,0.92412,0.12094,0.20345,-1.25257,0.01991,0.00041,2.23818,-0.04504,0.00339,2.05282,0.40514,0.51779,-0.30019,-0.57030,-4.82465,859.99035,831.87939,0.56329,14.35668,0.57030,0.03591,6.52347,10.29696,10.33288
87.77500,1.20397,-0.08059,0.92412,0.13131,0.20512,-1.23499,0.01991,0.00041,2.23818,-0.04504,0.00339,2.05282,0.40514,0.51779,-0.30019,-0.57030,-4.82625,860.13354,831.87939,0.56343,14.35632,0.57030,0.03763,6.52347,10.29696,10.33460
87.77600,1.20397,-0.08059,0.92412,0.13131,0.20512,-1.23499,0.01991,0.00041,2.23818,-0.04504,0.00339,2.05282,0.40514,0.51779,-0.30019,-0.57030,-4.82625,860.13354,828.04235,0.56343,14.35596,0.57030,0.03921,6.52347,10.29696,10.33617
87.77700,1.20397,-0.08059,0.92412,0.13039,0.20464,-1.21562,0.01991,0.00041,2.23818,-0.04504,0.00339,2.05282,0.40514,0.51779,-0.30019,-0.57030,-4.82773,860.26464,828.04235,0.56357,14.35557,0.57030,0.04078,6.52347,10.29696,10.33775
87.77799,1.20397,-0.08059,0.92412,0.13039,0.20464,-1.21562,0.01991,0.00041,2.23818,-0.04504,0.00339,2.05282,0.40514,0.51779,-0.30019,-0.57030,-4.82773,860.26464,828.04235,0.56357,14.35518,0.57030,0.04208,6.52347,10.29696,10.33904
87.77899,1.20397,-0.08059,0.92412,0.12877,0.19967,-1.19737,0.01991,0.00041,2.23818,-0.04504,0.00339,2.05282,0.40514,0.51779,-0.30019,-0.57030,-4.82894,860.37249,825.75701,0.56369,14.35477,0.57030,0.04338,6.52347,10.29696,10.34034
87.77999,1.20397,-0.08059,0.92412,0.12877,0.19967,-1.19737,0.01991,0.00041,2.23818,-0.04504,0.00339,2.05282,0.40514,0.51779,-0.30019,-0.57030,-4.82894,860.37249,824.24047,0.56369,14.35435,0.57030,0.04449,6.52347,10.29696,10.34145
87.78099,1.20397,-0.08059,0.92412,0.13670,0.19668,-1.18012,0.01991,0.00041,2.23818,-0.04504,0.00339,2.05282,0.40514,0.51779,-0.30019,-0.57030,-4.82997,860.44915,824.24047,0.56378,14.35391,0.56159,0.04560,6.52371,10.29696,10.34256
87.78199,1.20397,-0.08059,0.92412,0.13670,0.19668,-1.18012,0.01991,0.00041,2.23818,-0.04504,0.00339,2.05282,0.40514,0.51779,-0.30019,-0.57030,-4.82997,860.44915,824.24047,0.56378,14.35346,0.56159,0.04663,6.52371,10.29696,10.34359
87.78299,1.10484,-0.09467,0.98424,0.14256,0.19749,-1.16057,0.01770,-0.00270,2.23818,-0.04380,0.00504,2.04069,0.39209,0.52265,-0.30019,-0.56159,-4.86847,863.87121,825.75701,0.56657,14.35300,0.56159,0.04783,6.52371,10.37716,10.42499
87.78399,1.10484,-0.09467,0.98424,0.14256,0.19749,-1.16057,0.01770,-0.00270,2.23818,-0.04380,0.00504,2.04069,0.39209,0.52265,-0.30019,-0.56159,-4.86847,863.87121,825.75701,0.56657,14.35253,0.56159,0.04885,6.52371,10.37716,10.42602
87.78500,1.10484,-0.09467,0.98424,0.13815,0.19670,-1.13882,0.01770,-0.00270,2.23818,-0.04380,0.00504,2.04069,0.39209,0.52265,-0.30019,-0.56159,-4.86943,863.95635,827.27917,0.56667,14.35205,0.56159,0.04988,6.52371,10.37716,10.42704
87.78600,1.10484,-0.09467,0.98424,0.13815,0.19670,-1.13882,0.01770,-0.00270,2.23818,-0.04380,0.00504,2.04069,0.39209,0.52265,-0.30019,-0.56159,-4.86943,863.95635,827.27917,0.56667,14.35155,0.56159,0.05070,6.52371,10.37716,10.42786
87.78700,1.10484,-0.09467,0.98424,0.13667,0.19462,-1.11767,0.01770,-0.00270,2.23818,-0.04380,0.00504,2.04069,0.39209,0.52265,-0.30019,-0.56159,-4.87019,864.02374,827.27917,0.56677,14.35104,0.56159,0.05151,6.52371,10.37716,10.42867
87.78800,1.10484,-0.09467,0.98424,0.13667,0.19462,-1.11767,0.01770,-0.00270,2.23818,-0.04380,0.00504,2.04069,0.39209,0.52265,-0.30019,-0.56159,-4.87019,864.02374,828.04235,0.56677,14.35051,0.56159,0.05230,6.52371,10.37716,10.42946
87.78900,1.10484,-0.09467,0.98424,0.14491,0.19645,-1.09631,0.01770,-0.00270,2.23818,-0.04380,0.00504,2.04069,0.39209,0.52265,-0.30019,-0.56159,-4.87093,864.08935,828.80694,0.56686,14.34998,0.56159,0.05309,6.52371,10.37716,10.43025
87.79000,1.10484,-0.09467,0.98424,0.14491,0.19645,-1.09631,0.01770,-0.00270,2.23818,-0.04380,0.00504,2.04069,0.39209,0.52265,-0.30019,-0.56159,-4.87093,864.08935,828.80694,0.56686,14.34943,0.56159,0.05398,6.52371,10.37716,10.43115
87.79100,1.10484,-0.09467,0.98424,0.14957,0.19944,-1.07199,0.01770,-0.00270,2.23818,-0.04380,0.00504,2.04069,0.39209,0.52265,-0.30019,-0.56159,-4.87176,864.14538,832.65112,0.56695,14.34887,0.55270,0.05488,6.52398,10.37716,10.43204
87.79199,1.10484,-0.09467,0.98424,0.14957,0.19944,-1.07199,0.01770,-0.00270,2.23818,-0.04380,0.00504,2.04069,0.39209,0.52265,-0.30019,-0.56159,-4.87176,864.14538,832.65112,0.56695,14.34830,0.55270,0.05577,6.52398,10.37716,10.43293
87.79299,1.11435,-0.18912,1.03589,0.14617,0.19678,-1.04622,0.01859,-0.00949,2.23818,-0.04240,0.00674,2.02958,0.37875,0.52928,-0.30019,-0.55270,-4.91496,867.96856,832.65112,0.57007,14.34772,0.55270,0.05684,6.52398,10.46770,10.52455
87.79399,1.11435,-0.18912,1.03589,0.14617,0.19678,-1.04622,0.01859,-0.00949,2.23818,-0.04240,0.00674,2.02958,0.37875,0.52928,-0.30019,-0.55270,-4.91496,867.96856,854.04180,0.57007,14.34712,0.55270,0.05788,6.52398,10.46770,10.52559
87.79499,1.11435,-0.18912,1.03589,0.14763,0.19113,-1.02213,0.01859,-0.00949,2.23818,-0.04240,0.00674,2.02958,0.37875,0.52928,-0.30019,-0.55270,-4.91593,868.05401,861.41833,0.57019,14.34652,0.55270,0.05892,6.52398,10.46770,10.52662
87.79599,1.11435,-0.18912,1.03589,0.14763,0.19113,-1.02213,0.01859,-0.00949,2.23818,-0.04240,0.00674,2.02958,0.37875,0.52928,-0.30019,-0.55270,-4.91593,868.05401,861.41833,0.57019,14.34590,0.55270,0.06005,6.52398,10.46770,10.52775
87.79699,1.11435,-0.18912,1.03589,0.15523,0.18936,-0.99847,0.01859,-0.00949,2.23818,-0.04240,0.00674,2.02958,0.37875,0.52928,-0.30019,-0.55270,-4.91699,868.14733,861.41833,0.57031,14.34527,0.55270,0.06118,6.52398,10.46770,10.52888
87.79799,1.11435,-0.18912,1.03589,0.15523,0.18936,-0.99847,0.01859,-0.00949,2.23818,-0.04240,0.00674,2.02958,0.37875,0.52928,-0.30019,-0.55270,-4.91699,868.14733,861.41833,0.57031,14.34463,0.55270,0.06245,6.52398,10.46770,10.53016
87.79900,1.11435,-0.18912,1.03589,0.15604,0.18951,-0.97268,0.01859,-0.00949,2.23818,-0.04240,0.00674,2.02958,0.37875,0.52928,-0.30019,-0.55270,-4.91818,868.25225,861.41833,0.57045,14.34398,0.55270,0.06372,6.52398,10.46770,10.53143
87.80000,1.11435,-0.18912,1.03589,0.15604,0.18951,-0.97268,0.01859,-0.00949,2.23818,-0.04240,0.00674,2.02958,0.37875,0.52928,-0.30019,-0.55270,-4.91818,868.25225,861.41833,0.57045,14.34332,0.55270,0.06505,6.52398,10.46770,10.53276
87.80100,1.11435,-0.18912,1.03589,0.15213,0.18689,-0.94622,0.01859,-0.00949,2.23818,-0.04240,0.00674,2.02958,0.37875,0.52928,-0.30019,-0.55270,-4.91941,868.36151,861.41833,0.57059,14.34265,0.55270,0.06638,6.52398,10.46770,10.53408
87.80200,1.11435,-0.18912,1.03589,0.15213,0.18689,-0.94622,0.01859,-0.00949,2.23818,-0.04240,0.00674,2.02958,0.37875,0.52928,-0.30019,-0.55270,-4.91941,868.36151,856.48657,0.57059,14.34197,0.55270,0.06779,6.52398,10.46770,10.53549
87.80300,1.06719,0.00022,1.09309,0.15717,0.18459,-0.92114,0.01700,-0.00286,2.23818,-0.04093,0.00845,2.01974,0.37875,0.52928,-0.30019,-0.55270,-4.92039,868.44812,838.09326,0.57071,14.34127,0.55270,0.06920,6.52398,10.46697,10.53618
87.80400,1.06719,0.00022,1.09309,0.15717,0.18459,-0.92114,0.01700,-0.00286,2.23818,-0.04093,0.00845,2.01974,0.37875,0.52928,-0.30019,-0.55270,-4.92039,868.44812,836.53112,0.57071,14.34057,0.55270,0.07081,6.52398,10.46697,10.53779
87.80500,1.06719,0.00022,1.09309,0.16726,0.18474,-0.89590,0.01700,-0.00286,2.23818,-0.04093,0.00845,2.01974,0.37875,0.52928,-0.30019,-0.55270,-4.92190,868.58068,836.53112,0.57088,14.33986,0.55270,0.07242,6.52398,10.46697,10.53940
87.80599,1.06719,0.00022,1.09309,0.16726,0.18474,-0.89590,0.01700,-0.00286,2.23818,-0.04093,0.00845,2.01974,0.37875,0.52928,-0.30019,-0.55270,-4.92190,868.58068,836.53112,0.57088,14.33913,0.55270,0.07412,6.52398,10.46697,10.54110
87.80699,1.06719,0.00022,1.09309,0.16904,0.18089,-0.86918,0.01700,-0.00286,2.23818,-0.04093,0.00845,2.01974,0.37875,0.52928,-0.30019,-0.55270,-4.92348,868.72058,834.97479,0.57105,14.33840,0.55270,0.07581,6.52398,10.46697,10.54279
87.80799,1.06719,0.00022,1.09309,0.16904,0.18089,-0.86918,0.01700,-0.00286,2.23818,-0.04093,0.00845,2.01974,0.37875,0.52928,-0.30019,-0.55270,-4.92348,868.72058,836.53112,0.57105,14.33765,0.55270,0.07739,6.52398,10.46697,10.54437
87.80899,1.06719,0.00022,1.09309,0.16750,0.17060,-0.84267,0.01700,-0.00286,2.23818,-0.04093,0.00845,2.01974,0.37875,0.52928,-0.30019,-0.55270,-4.92496,868.85064,834.97479,0.57121,14.33690,0.55270,0.07897,6.52398,10.46697,10.54595
87.80999,1.06719,0.00022,1.09309,0.16750,0.17060,-0.84267,0.01700,-0.00286,2.23818,-0.04093,0.00845,2.01974,0.37875,0.52928,-0.30019,-0.55270,-4.92496,868.85064,834.97479,0.57121,14.33613,0.55270,0.08045,6.52398,10.46697,10.54743
87.81099,1.06719,0.00022,1.09309,0.17372,0.16181,-0.81679,0.01700,-0.00286,2.23818,-0.04093,0.00845,2.01974,0.37875,0.52928,-0.30019,-0.55270,-4.92634,868.95233,836.53112,0.57135,14.33536,0.54379,0.08193,6.52428,10.46697,10.54891
87.81199,1.06719,0.00022,1.09309,0.17372,0.16181,-0.81679,0.01700,-0.00286,2.23818,-0.04093,0.00845,2.01974,0.37875,0.52928,-0.30019,-0.55270,-4.92634,868.95233,836.53112,0.57135,14.33458,0.54379,0.08340,6.52428,10.46697,10.55038
87.81300,1.02120,-0.20887,1.12741,0.18024,0.15811,-0.78923,0.01461,-0.01168,2.23818,-0.03921,0.01010,2.01122,0.36540,0.53392,-0.30019,-0.54379,-4.96572,872.41882,836.53112,0.57421,14.33379,0.54379,0.08504,6.52428,10.54820,10.63324
87.81400,1.02120,-0.20887,1.12741,0.18024,0.15811,-0.78923,0.01461,-0.01168,2.23818,-0.03921,0.01010,2.01122,0.36540,0.53392,-0.30019,-0.54379,-4.96572,872.41882,872.30114,0.57421,14.33299,0.54379,0.08656,6.52428,10.54820,10.63477
87.81500,1.02120,-0.20887,1.12741,0.17831,0.15329,-0.76002,0.01461,-0.01168,2.23818,-0.03921,0.01010,2.01122,0.36540,0.53392,-0.30019,-0.54379,-4.96715,872.54394,872.30114,0.57437,14.33218,0.54379,0.08809,6.52428,10.54820,10.63629
87.81600,1.02120,-0.20887,1.12741,0.17831,0.15329,-0.76002,0.01461,-0.01168,2.23818,-0.03921,0.01010,2.01122,0.36540,0.53392,-0.30019,-0.54379,-4.96715,872.54394,834.97479,0.57437,14.33136,0.54379,0.08940,6.52428,10.54820,10.63761
87.81700,1.02120,-0.20887,1.12741,0.17838,0.14588,-0.73180,0.01461,-0.01168,2.23818,-0.03921,0.01010,2.01122,0.36540,0.53392,-0.30019,-0.54379,-4.96837,872.65179,829.57287,0.57452,14.33053,0.54379,0.09071,6.52428,10.54820,10.63892
87.81800,1.02120,-0.20887,1.12741,0.17838,0.14588,-0.73180,0.01461,-0.01168,2.23818,-0.03921,0.01010,2.01122,0.36540,0.53392,-0.30019,-0.54379,-4.96837,872.65179,829.57287,0.57452,14.32970,0.54379,0.09197,6.52428,10.54820,10.64017
87.81900,1.02120,-0.20887,1.12741,0.18798,0.14165,-0.70401,0.01461,-0.01168,2.23818,-0.03921,0.01010,2.01122,0.36540,0.53392,-0.30019,-0.54379,-4.96954,872.75439,829.57287,0.57467,14.32885,0.54379,0.09322,6.52428,10.54820,10.64142
87.81999,1.02120,-0.20887,1.12741,0.18798,0.14165,-0.70401,0.01461,-0.01168,2.23818,-0.03921,0.01010,2.01122,0.36540,0.53392,-0.30019,-0.54379,-4.96954,872.75439,844.40063,0.57467,14.32800,0.54379,0.09453,6.52428,10.54820,10.64273
87.82099,1.02120,-0.20887,1.12741,0.19513,0.13958,-0.67383,0.01461,-0.01168,2.23818,-0.03921,0.01010,2.01122,0.36540,0.53392,-0.30019,-0.54379,-4.97076,872.84680,853.22991,0.57482,14.32714,0.53779,0.09583,6.52450,10.54820,10.64404
87.82199,1.02120,-0.20887,1.12741,0.19513,0.13958,-0.67383,0.01461,-0.01168,2.23818,-0.03921,0.01010,2.01122,0.36540,0.53392,-0.30019,-0.54379,-4.97076,872.84680,844.40063,0.57482,14.32627,0.53779,0.09707,6.52450,10.54820,10.64527
87.82299,1.02105,-0.29756,1.15993,0.19405,0.13296,-0.64216,0.01397,-0.01930,2.23818,-0.03730,0.01147,2.00412,0.35639,0.53716,-0.30019,-0.53779,-4.99824,875.25592,844.40063,0.57683,14.32538,0.53779,0.09841,6.52450,10.60446,10.70288
87.82399,1.02105,-0.29756,1.15993,0.19405,0.13296,-0.64216,0.01397,-0.01930,2.23818,-0.03730,0.01147,2.00412,0.35639,0.53716,-0.30019,-0.53779,-4.99824,875.25592,851.61090,0.57683,14.32450,0.53779,0.09960,6.52450,10.60446,10.70406
87.82499,1.02105,-0.29756,1.15993,0.19707,0.12384,-0.61199,0.01397,-0.01930,2.23818,-0.03730,0.01147,2.00412,0.35639,0.53716,-0.30019,-0.53779,-4.99935,875.35284,844.40063,0.57698,14.32360,0.53779,0.10078,6.52450,10.60446,10.70525
87.82599,1.02105,-0.29756,1.15993,0.19707,0.12384,-0.61199,0.01397,-0.01930,2.23818,-0.03730,0.01147,2.00412,0.35639,0.53716,-0.30019,-0.53779,-4.99935,875.35284,851.61090,0.57698,14.32270,0.53779,0.10194,6.52450,10.60446,10.70641
87.82700,1.02105,-0.29756,1.15993,0.20729,0.11889,-0.58225,0.01397,-0.01930,2.23818,-0.03730,0.01147,2.00412,0.35639,0.53716,-0.30019,-0.53779,-5.00043,875.44750,851.61090,0.57713,14.32178,0.53779,0.10310,6.52450,10.60446,10.70756
87.82800,1.02105,-0.29756,1.15993,0.20729,0.11889,-0.58225,0.01397,-0.01930,2.23818,-0.03730,0.01147,2.00412,0.35639,0.53716,-0.30019,-0.53779,-5.00043,875.44750,851.61090,0.57713,14.32086,0.53779,0.10428,6.52450,10.60446,10.70875
87.82900,1.02105,-0.29756,1.15993,0.21210,0.11561,-0.55027,0.01397,-0.01930,2.23818,-0.03730,0.01147,2.00412,0.35639,0.53716,-0.30019,-0.53779,-5.00154,875.54455,851.61090,0.57728,14.31994,0.53779,0.10547,6.52450,10.60446,10.70994
87.83000,1.02105,-0.29756,1.15993,0.21210,0.11561,-0.55027,0.01397,-0.01930,2.23818,-0.03730,0.01147,2.00412,0.35639,0.53716,-0.30019,-0.53779,-5.00154,875.54455,842.81488,0.57728,14.31900,0.53779,0.10659,6.52450,10.60446,10.71105
87.83100,1.02105,-0.29756,1.15993,0.21135,0.10877,-0.51751,0.01397,-0.01930,2.23818,-0.03730,0.01147,2.00412,0.35639,0.53716,-0.30019,-0.53779,-5.00258,875.63592,842.81488,0.57743,14.31806,0.53779,0.10771,6.52450,10.60446,10.71217
87.83200,1.02105,-0.29756,1.15993,0.21135,0.10877,-0.51751,0.01397,-0.01930,2.23818,-0.03730,0.01147,2.00412,0.35639,0.53716,-0.30019,-0.53779,-5.00258,875.63592,838.09326,0.57743,14.31711,0.53779,0.10877,6.52450,10.60446,10.71324
87.83300,1.03058,-0.05758,1.19664,0.21807,0.10232,-0.48644,0.01448,-0.01097,2.23818,-0.03509,0.01269,1.99858,0.35639,0.53716,-0.30019,-0.53779,-5.00299,875.67156,838.09326,0.57753,14.31615,0.53779,0.10984,6.52450,10.60320,10.71304
87.83399,1.03058,-0.05758,1.19664,0.21807,0.10232,-0.48644,0.01448,-0.01097,2.23818,-0.03509,0.01269,1.99858,0.35639,0.53716,-0.30019,-0.53779,-5.00299,875.67156,842.81488,0.57753,14.31519,0.53779,0.11099,6.52450,10.60320,10.71419
87.83499,1.03058,-0.05758,1.19664,0.23038,0.10041,-0.45565,0.01448,-0.01097,2.23818,-0.03509,0.01269,1.99858,0.35639,0.53716,-0.30019,-0.53779,-5.00406,875.76531,838.09326,0.57769,14.31422,0.53779,0.11213,6.52450,10.60320,10.71534
87.83599,1.03058,-0.05758,1.19664,0.23038,0.10041,-0.45565,0.01448,-0.01097,2.23818,-0.03509,0.01269,1.99858,0.35639,0.53716,-0.30019,-0.53779,-5.00406,875.76531,838.87658,0.57769,14.31324,0.53779,0.11331,6.52450,10.60320,10.71651
87.83699,1.03058,-0.05758,1.19664,0.23621,0.09787,-0.42328,0.01448,-0.01097,2.23818,-0.03509,0.01269,1.99858,0.35639,0.53716,-0.30019,-0.53779,-5.00516,875.86120,838.87658,0.57784,14.31226,0.53779,0.11448,6.52450,10.60320,10.71768
87.83799,1.03058,-0.05758,1.19664,0.23621,0.09787,-0.42328,0.01448,-0.01097,2.23818,-0.03509,0.01269,1.99858,0.35639,0.53716,-0.30019,-0.53779,-5.00516,875.86120,842.81488,0.57784,14.31127,0.53779,0.11552,6.52450,10.60320,10.71873
87.83899,1.03058,-0.05758,1.19664,0.23967,0.09143,-0.39086,0.01448,-0.01097,2.23818,-0.03509,0.01269,1.99858,0.35639,0.53716,-0.30019,-0.53779,-5.00613,875.94641,842.81488,0.57799,14.31027,0.53779,0.11656,6.52450,10.60320,10.71977
87.83999,1.03058,-0.05758,1.19664,0.23967,0.09143,-0.39086,0.01448,-0.01097,2.23818,-0.03509,0.01269,1.99858,0.35639,0.53716,-0.30019,-0.53779,-5.00613,875.94641,842.81488,0.57799,14.30927,0.53779,0.11754,6.52450,10.60320,10.72075
87.84100,1.03058,-0.05758,1.19664,0.25069,0.08687,-0.35937,0.01448,-0.01097,2.23818,-0.03509,0.01269,1.99858,0.35639,0.53716,-0.30019,-0.53779,-5.00705,876.00213,842.81488,0.57812,14.30826,0.52890,0.11852,6.52486,10.60320,10.72173
87.84200,1.03058,-0.05758,1.19664,0.25069,0.08687,-0.35937,0.01448,-0.01097,2.23818,-0.03509,0.01269,1.99858,0.35639,0.53716,-0.30019,-0.53779,-5.00705,876.00213,842.81488,0.57812,14.30724,0.52890,0.11957,6.52486,10.60320,10.72278
87.84300,0.99543,-0.02908,1.21726,0.26195,0.08567,-0.32731,0.01346,-0.00712,2.23818,-0.03252,0.01373,1.99465,0.34305,0.53506,-0.30019,-0.52890,-5.03147,878.13635,842.81488,0.57992,14.30622,0.52890,0.12072,6.52486,10.65331,10.77404
87.84400,0.99543,-0.02908,1.21726,0.26195,0.08567,-0.32731,0.01346,-0.00712,2.23818,-0.03252,0.01373,1.99465,0.34305,0.53506,-0.30019,-0.52890,-5.03147,878.13635,842.81488,0.57992,14.30519,0.52890,0.12182,6.52486,10.65331,10.77514
87.84500,0.99543,-0.02908,1.21726,0.26483,0.08116,-0.29550,0.01346,-0.00712,2.23818,-0.03252,0.01373,1.99465,0.34305,0.53506,-0.30019,-0.52890,-5.03250,878.22607,844.40063,0.58008,14.30416,0.52890,0.12292,6.52486,10.65331,10.77624
87.84600,0.99543,-0.02908,1.21726,0.26483,0.08116,-0.29550,0.01346,-0.00712,2.23818,-0.03252,0.01373,1.99465,0.34305,0.53506,-0.30019,-0.52890,-5.03250,878.22607,844.40063,0.58008,14.30311,0.52890,0.12384,6.52486,10.65331,10.77716
87.84700,0.99543,-0.02908,1.21726,0.26894,0.07338,-0.26724,0.01346,-0.00712,2.23818,-0.03252,0.01373,1.99465,0.34305,0.53506,-0.30019,-0.52890,-5.03336,878.30126,845.19567,0.58022,14.30207,0.52890,0.12477,6.52486,10.65331,10.77808
87.84799,0.99543,-0.02908,1.21726,0.26894,0.07338,-0.26724,0.01346,-0.00712,2.23818,-0.03252,0.01373,1.99465,0.34305,0.53506,-0.30019,-0.52890,-5.03336,878.30126,849.99804,0.58022,14.30101,0.52890,0.12564,6.52486,10.65331,10.77896
87.84899,0.99543,-0.02908,1.21726,0.28124,0.06961,-0.24233,0.01346,-0.00712,2.23818,-0.03252,0.01373,1.99465,0.34305,0.53506,-0.30019,-0.52890,-5.03418,878.37219,849.99804,0.58037,14.29995,0.52890,0.12651,6.52486,10.65331,10.77983
87.84999,0.99543,-0.02908,1.21726,0.28124,0.06961,-0.24233,0.01346,-0.00712,2.23818,-0.03252,0.01373,1.99465,0.34305,0.53506,-0.30019,-0.52890,-5.03418,878.37219,849.99804,0.58037,14.29889,0.52890,0.12744,6.52486,10.65331,10.78076
87.85099,0.99543,-0.02908,1.21726,0.29084,0.06879,-0.21757,0.01346,-0.00712,2.23818,-0.03252,0.01373,1.99465,0.34305,0.53506,-0.30019,-0.52890,-5.03504,878.44799,849.99804,0.58051,14.29782,0.52890,0.12837,6.52486,10.65331,10.78169
87.85199,0.99543,-0.02908,1.21726,0.29084,0.06879,-0.21757,0.01346,-0.00712,2.23818,-0.03252,0.01373,1.99465,0.34305,0.53506,-0.30019,-0.52890,-5.03504,878.44799,845.19567,0.58051,14.29674,0.52890,0.12926,6.52486,10.65331,10.78258
87.85299,0.99652,-0.04876,1.22867,0.29315,0.06384,-0.19264,0.01404,-0.00554,2.23818,-0.02943,0.01466,1.99224,0.34305,0.53506,-0.30019,-0.52890,-5.03587,878.51983,849.99804,0.58066,14.29566,0.52890,0.13015,6.52486,10.65329,10.78345
87.85399,0.99652,-0.04876,1.22867,0.29315,0.06384,-0.19264,0.01404,-0.00554,2.23818,-0.02943,0.01466,1.99224,0.34305,0.53506,-0.30019,-0.52890,-5.03587,878.51983,849.99804,0.58066,14.29457,0.52890,0.13098,6.52486,10.65329,10.78427
87.85500,0.99652,-0.04876,1.22867,0.29975,0.05641,-0.16926,0.01404,-0.00554,2.23818,-0.02943,0.01466,1.99224,0.34305,0.53506,-0.30019,-0.52890,-5.03664,878.58691,843.60705,0.58080,14.29347,0.52890,0.13180,6.52486,10.65329,10.78510
87.85600,0.99652,-0.04876,1.22867,0.29975,0.05641,-0.16926,0.01404,-0.00554,2.23818,-0.02943,0.01466,1.99224,0.34305,0.53506,-0.30019,-0.52890,-5.03664,878.58691,843.60705,0.58080,14.29236,0.52890,0.13265,6.52486,10.65329,10.78595
87.85700,0.99652,-0.04876,1.22867,0.31227,0.05161,-0.14668,0.01404,-0.00554,2.23818,-0.02943,0.01466,1.99224,0.34305,0.53506,-0.30019,-0.52890,-5.03743,878.65618,849.99804,0.58095,14.29125,0.52890,0.13350,6.52486,10.65329,10.78680
87.85800,0.99652,-0.04876,1.22867,0.31227,0.05161,-0.14668,0.01404,-0.00554,2.23818,-0.02943,0.01466,1.99224,0.34305,0.53506,-0.30019,-0.52890,-5.03743,878.65618,847.59008,0.58095,14.29013,0.52890,0.13435,6.52486,10.65329,10.78764
87.85900,0.99652,-0.04876,1.22867,0.31846,0.04569,-0.12396,0.01404,-0.00554,2.23818,-0.02943,0.01466,1.99224,0.34305,0.53506,-0.30019,-0.52890,-5.03822,878.72503,845.19567,0.58110,14.28901,0.52890,0.13519,6.52486,10.65329,10.78849
87.86000,0.99652,-0.04876,1.22867,0.31846,0.04569,-0.12396,0.01404,-0.00554,2.23818,-0.02943,0.01466,1.99224,0.34305,0.53506,-0.30019,-0.52890,-5.03822,878.72503,845.19567,0.58110,14.28787,0.52890,0.13589,6.52486,10.65329,10.78919
87.86100,0.99652,-0.04876,1.22867,0.31896,0.03478,-0.10345,0.01404,-0.00554,2.23818,-0.02943,0.01466,1.99224,0.34305,0.53506,-0.30019,-0.52890,-5.03888,878.75488,847.59008,0.58121,14.28674,0.51999,0.13659,6.52527,10.65329,10.78989
87.86199,0.99652,-0.04876,1.22867,0.31896,0.03478,-0.10345,0.01404,-0.00554,2.23818,-0.02943,0.01466,1.99224,0.34305,0.53506,-0.30019,-0.52890,-5.03888,878.75488,847.59008,0.58121,14.28559,0.51999,0.13719,6.52527,10.65329,10.79048
87.86299,1.07673,-0.11022,1.23337,0.32530,0.02456,-0.08680,0.01944,-0.00717,2.23818,-0.02599,0.01537,1.99099,0.32969,0.53380,-0.30019,-0.51999,-5.06538,881.06317,845.19567,0.58317,14.28444,0.51999,0.13789,6.52527,10.70876,10.84665
87.86399,1.07673,-0.11022,1.23337,0.32530,0.02456,-0.08680,0.01944,-0.00717,2.23818,-0.02599,0.01537,1.99099,0.32969,0.53380,-0.30019,-0.51999,-5.06538,881.06317,847.59008,0.58317,14.28328,0.51999,0.13860,6.52527,10.70876,10.84737
87.86499,1.07673,-0.11022,1.23337,0.33426,0.01854,-0.07163,0.01944,-0.00717,2.23818,-0.02599,0.01537,1.99099,0.32969,0.53380,-0.30019,-0.51999,-5.06605,881.12133,847.59008,0.58331,14.28212,0.51999,0.13932,6.52527,10.70876,10.84808
87.86599,1.07673,-0.11022,1.23337,0.33426,0.01854,-0.07163,0.01944,-0.00717,2.23818,-0.02599,0.01537,1.99099,0.32969,0.53380,-0.30019,-0.51999,-5.06605,881.12133,847.59008,0.58331,14.28095,0.51999,0.13995,6.52527,10.70876,10.84871
87.86699,1.07673,-0.11022,1.23337,0.33623,0.01106,-0.05577,0.01944,-0.00717,2.23818,-0.02599,0.01537,1.99099,0.32969,0.53380,-0.30019,-0.51999,-5.06664,881.17248,845.99230,0.58345,14.27978,0.51999,0.14058,6.52527,10.70876,10.84934
87.86799,1.07673,-0.11022,1.23337,0.33623,0.01106,-0.05577,0.01944,-0.00717,2.23818,-0.02599,0.01537,1.99099,0.32969,0.53380,-0.30019,-0.51999,-5.06664,881.17248,845.99230,0.58345,14.27860,0.51999,0.14099,6.52527,10.70876,10.84975
87.86900,1.07673,-0.11022,1.23337,0.33789,0.00095,-0.04001,0.01944,-0.00717,2.23818,-0.02599,0.01537,1.99099,0.32969,0.53380,-0.30019,-0.51999,-5.06702,881.20562,845.99230,0.58357,14.27742,0.51999,0.14140,6.52527,10.70876,10.85016
87.87000,1.07673,-0.11022,1.23337,0.33789,0.00095,-0.04001,0.01944,-0.00717,2.23818,-0.02599,0.01537,1.99099,0.32969,0.53380,-0.30019,-0.51999,-5.06702,881.20562,858.12420,0.58357,14.27623,0.51999,0.14172,6.52527,10.70876,10.85049
87.87100,1.07673,-0.11022,1.23337,0.34722,-0.00531,-0.02408,0.01944,-0.00717,2.23818,-0.02599,0.01537,1.99099,0.32969,0.53380,-0.30019,-0.51999,-5.06733,881.20172,858.12420,0.58367,14.27503,0.51110,0.14205,6.52572,10.70876,10.85081
