time,target gyro x,target gyro y,target gyro z,gyro x,gyro y,gyro z,target angle x,target angle y,target angle z,angle x,angle y,angle z,target vel z,vel z,target pos z,pos z,desire thrust,desire rotor speed,rotor speed,motor_output,bettery voltage,height,thrust,K_T,acc_z_d,acc_z_com
38.15599,1.07161,0.11124,0.82626,0.02503,0.09202,-0.31249,0.07990,-0.03391,2.20392,0.02435,-0.04108,2.03803,0.01890,0.00951,-0.65019,-0.66280,-4.43410,824.57928,831.10913,0.62604,12.26561,0.66280,-0.30154,0.00000,9.79672,9.49518
38.15700,1.07161,0.11124,0.82626,0.02853,0.09345,-0.29080,0.07990,-0.03391,2.20392,0.02435,-0.04108,2.03803,0.01890,0.00951,-0.65019,-0.66280,-4.43427,824.59515,832.65112,0.62606,12.26547,0.66280,-0.30149,0.00000,9.79672,9.49523
38.15800,1.07161,0.11124,0.82626,0.02853,0.09345,-0.29080,0.07990,-0.03391,2.20392,0.02435,-0.04108,2.03803,0.01890,0.00951,-0.65019,-0.66280,-4.43427,824.59515,832.65112,0.62606,12.26533,0.66259,-0.30145,0.00000,9.79672,9.49527
38.15900,1.07161,0.11124,0.82626,0.03318,0.08509,-0.28327,0.07990,-0.03391,2.20392,0.02435,-0.04108,2.03803,0.01890,0.00951,-0.65019,-0.66280,-4.43418,824.58721,832.65112,0.62607,12.26519,0.66259,-0.30168,0.00000,9.79672,9.49504
38.15999,1.07161,0.11124,0.82626,0.03318,0.08509,-0.28327,0.07990,-0.03391,2.20392,0.02435,-0.04108,2.03803,0.01890,0.00951,-0.65019,-0.66280,-4.43418,824.58721,834.19879,0.62607,12.26505,0.66259,-0.30190,0.00000,9.79672,9.49481
38.16099,1.07161,0.11124,0.82626,0.04102,0.08158,-0.27747,0.07990,-0.03391,2.20392,0.02435,-0.04108,2.03803,0.01890,0.00951,-0.65019,-0.66280,-4.43399,824.56933,836.53112,0.62607,12.26490,0.66259,-0.30209,0.00000,9.79672,9.49463
38.16199,1.07161,0.11124,0.82626,0.04102,0.08158,-0.27747,0.07990,-0.03391,2.20392,0.02435,-0.04108,2.03803,0.01890,0.00951,-0.65019,-0.66280,-4.43399,824.56933,836.53112,0.62607,12.26474,0.66259,-0.30227,0.00000,9.79672,9.49445
38.16299,1.07161,0.11124,0.82626,0.04491,0.08053,-0.27040,0.07990,-0.03391,2.20392,0.02435,-0.04108,2.03803,0.01890,0.00951,-0.65019,-0.66280,-4.43391,824.56225,834.19879,0.62608,12.26459,0.66259,-0.30225,0.00000,9.79672,9.49447
38.16400,1.07161,0.11124,0.82626,0.04491,0.08053,-0.27040,0.07990,-0.03391,2.20392,0.02435,-0.04108,2.03803,0.01890,0.00951,-0.65019,-0.66280,-4.43391,824.56225,834.19879,0.62608,12.26443,0.66259,-0.30223,0.00000,9.79672,9.49449
38.16500,-1.57079,1.57079,0.77695,0.04979,0.07514,-0.26569,-0.21766,0.10321,2.20392,0.02452,-0.03998,2.03507,0.54359,0.01109,-0.30020,-0.66259,-3.79597,762.94158,834.19879,0.56815,12.26426,0.66259,-0.30488,0.00000,8.43331,8.12842
38.16600,-1.57079,1.57079,0.77695,0.04979,0.07514,-0.26569,-0.21766,0.10321,2.20392,0.02452,-0.03998,2.03507,0.54359,0.01109,-0.30020,-0.66259,-3.79597,762.94158,836.53112,0.56815,12.26409,0.66259,-0.30753,0.00000,8.43331,8.12578
38.16699,-1.57079,1.57079,0.77695,0.06072,0.07119,-0.26337,-0.21766,0.10321,2.20392,0.02452,-0.03998,2.03507,0.54359,0.01109,-0.30020,-0.66259,-3.79358,762.70098,831.10913,0.56793,12.26392,0.66259,-0.31001,0.00000,8.43331,8.12330
38.16799,-1.57079,1.57079,0.77695,0.06072,0.07119,-0.26337,-0.21766,0.10321,2.20392,0.02452,-0.03998,2.03507,0.54359,0.01109,-0.30020,-0.66259,-3.79358,762.70098,831.10913,0.56793,12.26374,0.66240,-0.31249,0.00000,8.43331,8.12082
38.16899,-1.57079,1.57079,0.77695,0.06991,0.07375,-0.25700,-0.21766,0.10321,2.20392,0.02452,-0.03998,2.03507,0.54359,0.01109,-0.30020,-0.66259,-3.79147,762.48968,831.10913,0.56775,12.26356,0.66240,-0.31451,0.00000,8.43331,8.11880
38.16999,-1.57079,1.57079,0.77695,0.06991,0.07375,-0.25700,-0.21766,0.10321,2.20392,0.02452,-0.03998,2.03507,0.54359,0.01109,-0.30020,-0.66259,-3.79147,762.48968,831.10913,0.56775,12.26338,0.66240,-0.31653,0.00000,8.43331,8.11677
38.17100,-1.57079,1.57079,0.77695,0.07272,0.07316,-0.24631,-0.21766,0.10321,2.20392,0.02452,-0.03998,2.03507,0.54359,0.01109,-0.30020,-0.66259,-3.78976,762.31750,836.53112,0.56761,12.26319,0.66240,-0.31817,0.00000,8.43331,8.11513
38.17200,-1.57079,1.57079,0.77695,0.07272,0.07316,-0.24631,-0.21766,0.10321,2.20392,0.02452,-0.03998,2.03507,0.54359,0.01109,-0.30020,-0.66259,-3.78976,762.31750,831.10913,0.56761,12.26300,0.66240,-0.31982,0.00000,8.43331,8.11348
38.17300,-1.57079,1.57079,0.77695,0.07774,0.06321,-0.23844,-0.21766,0.10321,2.20392,0.02452,-0.03998,2.03507,0.54359,0.01109,-0.30020,-0.66259,-3.78827,762.16766,831.10913,0.56748,12.26281,0.66240,-0.32136,0.00000,8.43331,8.11194
38.17399,-1.57079,1.57079,0.77695,0.07774,0.06321,-0.23844,-0.21766,0.10321,2.20392,0.02452,-0.03998,2.03507,0.54359,0.01109,-0.30020,-0.66259,-3.78827,762.16766,831.10913,0.56748,12.26261,0.66240,-0.32291,0.00000,8.43331,8.11040
38.17499,0.28326,0.49088,0.84437,0.08783,0.05395,-0.23434,-0.09472,0.04744,2.20392,0.02500,-0.03902,2.03252,0.54329,0.00935,-0.30020,-0.66240,-3.69281,752.50286,831.10913,0.55841,12.26241,0.66240,-0.32477,0.00000,8.23229,7.90751
38.17599,0.28326,0.49088,0.84437,0.08783,0.05395,-0.23434,-0.09472,0.04744,2.20392,0.02500,-0.03902,2.03252,0.54329,0.00935,-0.30020,-0.66240,-3.69281,752.50286,833.42425,0.55841,12.26221,0.66240,-0.32662,0.00000,8.23229,7.90566
38.17699,0.28326,0.49088,0.84437,0.09339,0.05152,-0.22840,-0.09472,0.04744,2.20392,0.02500,-0.03902,2.03252,0.54329,0.00935,-0.30020,-0.66240,-3.69113,752.33221,833.42425,0.55827,12.26200,0.66240,-0.32835,0.00000,8.23229,7.90393
38.17800,0.28326,0.49088,0.84437,0.09339,0.05152,-0.22840,-0.09472,0.04744,2.20392,0.02500,-0.03902,2.03252,0.54329,0.00935,-0.30020,-0.66240,-3.69113,752.33221,833.42425,0.55827,12.26179,0.66230,-0.33008,0.00000,8.23229,7.90220
38.17900,0.28326,0.49088,0.84437,0.09325,0.04769,-0.22049,-0.09472,0.04744,2.20392,0.02500,-0.03902,2.03252,0.54329,0.00935,-0.30020,-0.66240,-3.68948,752.16345,833.42425,0.55813,12.26158,0.66230,-0.33190,0.00000,8.23229,7.90038
38.18000,0.28326,0.49088,0.84437,0.09325,0.04769,-0.22049,-0.09472,0.04744,2.20392,0.02500,-0.03902,2.03252,0.54329,0.00935,-0.30020,-0.66240,-3.68948,752.16345,829.57287,0.55813,12.26136,0.66230,-0.33372,0.00000,8.23229,7.89856
38.18099,0.28326,0.49088,0.84437,0.09860,0.04000,-0.21401,-0.09472,0.04744,2.20392,0.02500,-0.03902,2.03252,0.54329,0.00935,-0.30020,-0.66240,-3.68764,751.97613,829.57287,0.55798,12.26114,0.66230,-0.33583,0.00000,8.23229,7.89645
38.18199,0.28326,0.49088,0.84437,0.09860,0.04000,-0.21401,-0.09472,0.04744,2.20392,0.02500,-0.03902,2.03252,0.54329,0.00935,-0.30020,-0.66240,-3.68764,751.97613,828.04235,0.55798,12.26091,0.66230,-0.33795,0.00000,8.23229,7.89433
38.18299,0.28326,0.49088,0.84437,0.11067,0.03714,-0.20504,-0.09472,0.04744,2.20392,0.02500,-0.03902,2.03252,0.54329,0.00935,-0.30020,-0.66240,-3.68556,751.76458,828.04235,0.55780,12.26068,0.66230,-0.34027,0.00000,8.23229,7.89201
38.18399,0.28326,0.49088,0.84437,0.11067,0.03714,-0.20504,-0.09472,0.04744,2.20392,0.02500,-0.03902,2.03252,0.54329,0.00935,-0.30020,-0.66240,-3.68556,751.76458,829.57287,0.55780,12.26045,0.66230,-0.34260,0.00000,8.23229,7.88968
38.18500,1.31724,0.02195,0.86727,0.11894,0.03852,-0.18733,-0.03135,0.01925,2.20392,0.02583,-0.03824,2.03028,0.54314,0.00893,-0.30020,-0.66230,-3.66396,749.55834,828.04235,0.55574,12.26021,0.66230,-0.34514,0.00000,8.19089,7.84575
38.18600,1.31724,0.02195,0.86727,0.11894,0.03852,-0.18733,-0.03135,0.01925,2.20392,0.02583,-0.03824,2.03028,0.54314,0.00893,-0.30020,-0.66230,-3.66396,749.55834,828.04235,0.55574,12.25998,0.66230,-0.34767,0.00000,8.19089,7.84322
38.18700,1.31724,0.02195,0.86727,0.12281,0.03420,-0.16291,-0.03135,0.01925,2.20392,0.02583,-0.03824,2.03028,0.54314,0.00893,-0.30020,-0.66230,-3.66145,749.30072,824.99804,0.55552,12.25974,0.66230,-0.35053,0.00000,8.19089,7.84036
38.18799,1.31724,0.02195,0.86727,0.12281,0.03420,-0.16291,-0.03135,0.01925,2.20392,0.02583,-0.03824,2.03028,0.54314,0.00893,-0.30020,-0.66230,-3.66145,749.30072,821.22412,0.55552,12.25950,0.66230,-0.35338,0.00000,8.19089,7.83750
38.18899,1.31724,0.02195,0.86727,0.13043,0.02666,-0.13576,-0.03135,0.01925,2.20392,0.02583,-0.03824,2.03028,0.54314,0.00893,-0.30020,-0.66230,-3.65857,749.00604,820.47338,0.55527,12.25925,0.66230,-0.35669,0.00000,8.19089,7.83419
38.18999,1.31724,0.02195,0.86727,0.13043,0.02666,-0.13576,-0.03135,0.01925,2.20392,0.02583,-0.03824,2.03028,0.54314,0.00893,-0.30020,-0.66230,-3.65857,749.00604,820.47338,0.55527,12.25900,0.66230,-0.36000,0.00000,8.19089,7.83089
38.19100,1.31724,0.02195,0.86727,0.13904,0.02711,-0.10305,-0.03135,0.01925,2.20392,0.02583,-0.03824,2.03028,0.54314,0.00893,-0.30020,-0.66230,-3.65539,748.68066,819.72406,0.55498,12.25875,0.66230,-0.36350,0.00000,8.19089,7.82739
38.19200,1.31724,0.02195,0.86727,0.13904,0.02711,-0.10305,-0.03135,0.01925,2.20392,0.02583,-0.03824,2.03028,0.54314,0.00893,-0.30020,-0.66230,-3.65539,748.68066,819.72406,0.55498,12.25850,0.66230,-0.36700,0.00000,8.19089,7.82389
38.19300,1.31724,0.02195,0.86727,0.14045,0.03307,-0.06327,-0.03135,0.01925,2.20392,0.02583,-0.03824,2.03028,0.54314,0.00893,-0.30020,-0.66230,-3.65214,748.34802,819.72406,0.55469,12.25824,0.66230,-0.37045,0.00000,8.19089,7.82043
38.19400,1.31724,0.02195,0.86727,0.14045,0.03307,-0.06327,-0.03135,0.01925,2.20392,0.02583,-0.03824,2.03028,0.54314,0.00893,-0.30020,-0.66230,-3.65214,748.34802,819.72406,0.55469,12.25798,0.66230,-0.37391,0.00000,8.19089,7.81698
38.19499,1.14424,0.06035,0.87512,0.13924,0.03424,-0.02300,-0.00859,0.00742,2.20392,0.02696,-0.03769,2.02851,0.54314,0.00893,-0.30020,-0.66230,-3.64654,747.77410,818.22955,0.55418,12.25772,0.66230,-0.37743,0.00000,8.18588,7.80844
38.19599,1.14424,0.06035,0.87512,0.13924,0.03424,-0.02300,-0.00859,0.00742,2.20392,0.02696,-0.03769,2.02851,0.54314,0.00893,-0.30020,-0.66230,-3.64654,747.77410,816.74053,0.55418,12.25746,0.66230,-0.38094,0.00000,8.18588,7.80493
38.19699,1.14424,0.06035,0.87512,0.14339,0.03410,0.01410,-0.00859,0.00742,2.20392,0.02696,-0.03769,2.02851,0.54314,0.00893,-0.30020,-0.66230,-3.64325,747.43701,816.74053,0.55388,12.25719,0.66230,-0.38446,0.00000,8.18588,7.80141
38.19800,1.14424,0.06035,0.87512,0.14339,0.03410,0.01410,-0.00859,0.00742,2.20392,0.02696,-0.03769,2.02851,0.54314,0.00893,-0.30020,-0.66230,-3.64325,747.43701,816.74053,0.55388,12.25692,0.66210,-0.38798,0.00000,8.18588,7.79789
38.19900,1.14424,0.06035,0.87512,0.14692,0.04164,0.05423,-0.00859,0.00742,2.20392,0.02696,-0.03769,2.02851,0.54314,0.00893,-0.30020,-0.66230,-3.64014,747.11737,815.25689,0.55361,12.25665,0.66210,-0.39114,0.00000,8.18588,7.79473
38.20000,1.14424,0.06035,0.87512,0.14692,0.04164,0.05423,-0.00859,0.00742,2.20392,0.02696,-0.03769,2.02851,0.54314,0.00893,-0.30020,-0.66230,-3.64014,747.11737,815.25689,0.55361,12.25638,0.66210,-0.39429,0.00000,8.18588,7.79158
38.20100,1.14424,0.06035,0.87512,0.14256,0.05133,0.10194,-0.00859,0.00742,2.20392,0.02696,-0.03769,2.02851,0.54314,0.00893,-0.30020,-0.66230,-3.63744,746.83996,813.04156,0.55337,12.25611,0.66210,-0.39692,0.00000,8.18588,7.78895
38.20199,1.14424,0.06035,0.87512,0.14256,0.05133,0.10194,-0.00859,0.00742,2.20392,0.02696,-0.03769,2.02851,0.54314,0.00893,-0.30020,-0.66230,-3.63744,746.83996,813.04156,0.55337,12.25583,0.66210,-0.39956,0.00000,8.18588,7.78631
38.20299,1.14424,0.06035,0.87512,0.13878,0.05375,0.15304,-0.00859,0.00742,2.20392,0.02696,-0.03769,2.02851,0.54314,0.00893,-0.30020,-0.66230,-3.63513,746.60369,807.91894,0.55317,12.25556,0.66210,-0.40185,0.00000,8.18588,7.78402
38.20399,1.14424,0.06035,0.87512,0.13878,0.05375,0.15304,-0.00859,0.00742,2.20392,0.02696,-0.03769,2.02851,0.54314,0.00893,-0.30020,-0.66230,-3.63513,746.60369,813.04156,0.55317,12.25528,0.66210,-0.40415,0.00000,8.18588,7.78173
38.20500,0.98971,0.06955,0.87563,0.14436,0.05462,0.20451,0.00485,-0.00216,2.20392,0.02833,-0.03723,2.02835,0.54285,0.01444,-0.30020,-0.66210,-3.64113,747.21887,802.14288,0.55378,12.25501,0.66210,-0.40604,0.00000,8.20290,7.79685
38.20600,0.98971,0.06955,0.87563,0.14436,0.05462,0.20451,0.00485,-0.00216,2.20392,0.02833,-0.03723,2.02835,0.54285,0.01444,-0.30020,-0.66210,-3.64113,747.21887,800.71173,0.55378,12.25473,0.66210,-0.40793,0.00000,8.20290,7.79496
38.20700,0.98971,0.06955,0.87563,0.15061,0.06221,0.25951,0.00485,-0.00216,2.20392,0.02833,-0.03723,2.02835,0.54285,0.01444,-0.30020,-0.66210,-3.63965,747.06713,800.71173,0.55366,12.25445,0.66210,-0.40921,0.00000,8.20290,7.79369
38.20800,0.98971,0.06955,0.87563,0.15061,0.06221,0.25951,0.00485,-0.00216,2.20392,0.02833,-0.03723,2.02835,0.54285,0.01444,-0.30020,-0.66210,-3.63965,747.06713,799.99810,0.55366,12.25418,0.66189,-0.41048,0.00000,8.20290,7.79241
38.20899,0.98971,0.06955,0.87563,0.14767,0.06941,0.31788,0.00485,-0.00216,2.20392,0.02833,-0.03723,2.02835,0.54285,0.01444,-0.30020,-0.66210,-3.63873,746.97271,799.99810,0.55360,12.25390,0.66189,-0.41118,0.00000,8.20290,7.79172
38.20999,0.98971,0.06955,0.87563,0.14767,0.06941,0.31788,0.00485,-0.00216,2.20392,0.02833,-0.03723,2.02835,0.54285,0.01444,-0.30020,-0.66210,-3.63873,746.97271,799.28570,0.55360,12.25363,0.66189,-0.41187,0.00000,8.20290,7.79102
38.21099,0.98971,0.06955,0.87563,0.14310,0.06869,0.37360,0.00485,-0.00216,2.20392,0.02833,-0.03723,2.02835,0.54285,0.01444,-0.30020,-0.66210,-3.63820,746.91845,799.28570,0.55357,12.25335,0.66189,-0.41231,0.00000,8.20290,7.79058
38.21200,0.98971,0.06955,0.87563,0.14310,0.06869,0.37360,0.00485,-0.00216,2.20392,0.02833,-0.03723,2.02835,0.54285,0.01444,-0.30020,-0.66210,-3.63820,746.91845,797.86480,0.55357,12.25308,0.66189,-0.41274,0.00000,8.20290,7.79015
38.21300,0.98971,0.06955,0.87563,0.14612,0.06871,0.42567,0.00485,-0.00216,2.20392,0.02833,-0.03723,2.02835,0.54285,0.01444,-0.30020,-0.66210,-3.63789,746.88702,798.57464,0.55356,12.25281,0.66189,-0.41296,0.00000,8.20290,7.78993
38.21400,0.98971,0.06955,0.87563,0.14612,0.06871,0.42567,0.00485,-0.00216,2.20392,0.02833,-0.03723,2.02835,0.54285,0.01444,-0.30020,-0.66210,-3.63789,746.88702,798.57464,0.55356,12.25254,0.66189,-0.41318,0.00000,8.20290,7.78971
38.21500,0.95688,0.33715,0.85622,0.14953,0.07738,0.47987,0.01694,0.00421,2.20392,0.02963,-0.03650,2.03064,0.54254,0.01243,-0.30020,-0.66189,-3.63602,746.69427,797.86480,0.55341,12.25227,0.66189,-0.41300,0.00000,8.19891,7.78591
38.21599,0.95688,0.33715,0.85622,0.14953,0.07738,0.47987,0.01694,0.00421,2.20392,0.02963,-0.03650,2.03064,0.54254,0.01243,-0.30020,-0.66189,-3.63602,746.69427,795.74279,0.55341,12.25200,0.66189,-0.41281,0.00000,8.19891,7.78610
38.21699,0.95688,0.33715,0.85622,0.14480,0.08573,0.53683,0.01694,0.00421,2.20392,0.02963,-0.03650,2.03064,0.54254,0.01243,-0.30020,-0.66189,-3.63636,746.72918,795.74279,0.55346,12.25174,0.66189,-0.41227,0.00000,8.19891,7.78664
38.21799,0.95688,0.33715,0.85622,0.14480,0.08573,0.53683,0.01694,0.00421,2.20392,0.02963,-0.03650,2.03064,0.54254,0.01243,-0.30020,-0.66189,-3.63636,746.72918,795.74279,0.55346,12.25148,0.66189,-0.41173,0.00000,8.19891,7.78718
38.21900,0.95688,0.33715,0.85622,0.13927,0.08557,0.59039,0.01694,0.00421,2.20392,0.02963,-0.03650,2.03064,0.54254,0.01243,-0.30020,-0.66189,-3.63690,746.78479,795.74279,0.55354,12.25123,0.66189,-0.41111,0.00000,8.19891,7.78780
38.22000,0.95688,0.33715,0.85622,0.13927,0.08557,0.59039,0.01694,0.00421,2.20392,0.02963,-0.03650,2.03064,0.54254,0.01243,-0.30020,-0.66189,-3.63690,746.78479,795.74279,0.55354,12.25098,0.66189,-0.41049,0.00000,8.19891,7.78842
38.22100,0.95688,0.33715,0.85622,0.14144,0.08493,0.63973,0.01694,0.00421,2.20392,0.02963,-0.03650,2.03064,0.54254,0.01243,-0.30020,-0.66189,-3.63750,746.84613,794.33441,0.55362,12.25073,0.66189,-0.40983,0.00000,8.19891,7.78908
38.22200,0.95688,0.33715,0.85622,0.14144,0.08493,0.63973,0.01694,0.00421,2.20392,0.02963,-0.03650,2.03064,0.54254,0.01243,-0.30020,-0.66189,-3.63750,746.84613,794.33441,0.55362,12.25049,0.66189,-0.40917,0.00000,8.19891,7.78974
38.22299,0.95688,0.33715,0.85622,0.14440,0.09075,0.69083,0.01694,0.00421,2.20392,0.02963,-0.03650,2.03064,0.54254,0.01243,-0.30020,-0.66189,-3.63819,746.91772,791.53253,0.55371,12.25025,0.66189,-0.40834,0.00000,8.19891,7.79057
38.22399,0.95688,0.33715,0.85622,0.14440,0.09075,0.69083,0.01694,0.00421,2.20392,0.02963,-0.03650,2.03064,0.54254,0.01243,-0.30020,-0.66189,-3.63819,746.91772,790.83514,0.55371,12.25002,0.66189,-0.40750,0.00000,8.19891,7.79140
38.22499,0.71209,0.27141,0.83189,0.14056,0.09488,0.74383,0.01462,0.00114,2.20392,0.03083,-0.03564,2.03584,0.54254,0.01243,-0.30020,-0.66189,-3.63882,746.98229,790.83514,0.55379,12.24980,0.66189,-0.40662,0.00000,8.19854,7.79192
38.22600,0.71209,0.27141,0.83189,0.14056,0.09488,0.74383,0.01462,0.00114,2.20392,0.03083,-0.03564,2.03584,0.54254,0.01243,-0.30020,-0.66189,-3.63882,746.98229,790.83514,0.55379,12.24958,0.66189,-0.40574,0.00000,8.19854,7.79280
38.22700,0.71209,0.27141,0.83189,0.13698,0.09147,0.79163,0.01462,0.00114,2.20392,0.03083,-0.03564,2.03584,0.54254,0.01243,-0.30020,-0.66189,-3.63953,747.05487,790.83514,0.55388,12.24937,0.66189,-0.40511,0.00000,8.19854,7.79343
38.22800,0.71209,0.27141,0.83189,0.13698,0.09147,0.79163,0.01462,0.00114,2.20392,0.03083,-0.03564,2.03584,0.54254,0.01243,-0.30020,-0.66189,-3.63953,747.05487,790.83514,0.55388,12.24916,0.66170,-0.40448,0.00000,8.19854,7.79406
38.22900,0.71209,0.27141,0.83189,0.13990,0.08998,0.83292,0.01462,0.00114,2.20392,0.03083,-0.03564,2.03584,0.54254,0.01243,-0.30020,-0.66189,-3.64000,747.10339,789.44403,0.55394,12.24896,0.66170,-0.40410,0.00000,8.19854,7.79444
38.22999,0.71209,0.27141,0.83189,0.13990,0.08998,0.83292,0.01462,0.00114,2.20392,0.03083,-0.03564,2.03584,0.54254,0.01243,-0.30020,-0.66189,-3.64000,747.10339,789.44403,0.55394,12.24877,0.66170,-0.40371,0.00000,8.19854,7.79482
38.23099,0.71209,0.27141,0.83189,0.14018,0.09695,0.87393,0.01462,0.00114,2.20392,0.03083,-0.03564,2.03584,0.54254,0.01243,-0.30020,-0.66189,-3.64034,747.13842,788.05786,0.55399,12.24859,0.66170,-0.40336,0.00000,8.19854,7.79517
38.23199,0.71209,0.27141,0.83189,0.14018,0.09695,0.87393,0.01462,0.00114,2.20392,0.03083,-0.03564,2.03584,0.54254,0.01243,-0.30020,-0.66189,-3.64034,747.13842,788.05786,0.55399,12.24841,0.66170,-0.40301,0.00000,8.19854,7.79552
38.23300,0.71209,0.27141,0.83189,0.13054,0.10314,0.91535,0.01462,0.00114,2.20392,0.03083,-0.03564,2.03584,0.54254,0.01243,-0.30020,-0.66189,-3.64065,747.17034,785.98767,0.55404,12.24825,0.66170,-0.40270,0.00000,8.19854,7.79584
38.23400,0.71209,0.27141,0.83189,0.13054,0.10314,0.91535,0.01462,0.00114,2.20392,0.03083,-0.03564,2.03584,0.54254,0.01243,-0.30020,-0.66189,-3.64065,747.17034,785.29998,0.55404,12.24809,0.66170,-0.40238,0.00000,8.19854,7.79616
38.23500,0.66408,0.40734,0.78814,0.12086,0.10181,0.95040,0.01500,0.00721,2.20392,0.03188,-0.03472,2.04368,0.54224,0.01256,-0.30020,-0.66170,-3.64156,747.26342,785.29998,0.55414,12.24794,0.66170,-0.40228,0.00000,8.20007,7.79778
38.23600,0.66408,0.40734,0.78814,0.12086,0.10181,0.95040,0.01500,0.00721,2.20392,0.03188,-0.03472,2.04368,0.54224,0.01256,-0.30020,-0.66170,-3.64156,747.26342,785.98767,0.55414,12.24781,0.66170,-0.40217,0.00000,8.20007,7.79789
38.23699,0.66408,0.40734,0.78814,0.12046,0.10158,0.97815,0.01500,0.00721,2.20392,0.03188,-0.03472,2.04368,0.54224,0.01256,-0.30020,-0.66170,-3.64159,747.26654,785.98767,0.55415,12.24768,0.66170,-0.40221,0.00000,8.20007,7.79785
38.23799,0.66408,0.40734,0.78814,0.12046,0.10158,0.97815,0.01500,0.00721,2.20392,0.03188,-0.03472,2.04368,0.54224,0.01256,-0.30020,-0.66170,-3.64159,747.26654,785.98767,0.55415,12.24756,0.66170,-0.40225,0.00000,8.20007,7.79781
38.23899,0.66408,0.40734,0.78814,0.12137,0.10832,1.00557,0.01500,0.00721,2.20392,0.03188,-0.03472,2.04368,0.54224,0.01256,-0.30020,-0.66170,-3.64160,747.26715,787.36657,0.55416,12.24746,0.66170,-0.40220,0.00000,8.20007,7.79786
38.24000,0.66408,0.40734,0.78814,0.12137,0.10832,1.00557,0.01500,0.00721,2.20392,0.03188,-0.03472,2.04368,0.54224,0.01256,-0.30020,-0.66170,-3.64160,747.26715,785.98767,0.55416,12.24736,0.66170,-0.40215,0.00000,8.20007,7.79791
38.24100,0.66408,0.40734,0.78814,0.11493,0.11282,1.03448,0.01500,0.00721,2.20392,0.03188,-0.03472,2.04368,0.54224,0.01256,-0.30020,-0.66170,-3.64166,747.27349,782.56134,0.55418,12.24728,0.66170,-0.40207,0.00000,8.20007,7.79799
38.24200,0.66408,0.40734,0.78814,0.11493,0.11282,1.03448,0.01500,0.00721,2.20392,0.03188,-0.03472,2.04368,0.54224,0.01256,-0.30020,-0.66170,-3.64166,747.27349,782.56134,0.55418,12.24721,0.66170,-0.40199,0.00000,8.20007,7.79807
38.24300,0.66408,0.40734,0.78814,0.10885,0.10935,1.05915,0.01500,0.00721,2.20392,0.03188,-0.03472,2.04368,0.54224,0.01256,-0.30020,-0.66170,-3.64161,747.26879,782.56134,0.55418,12.24715,0.66170,-0.40217,0.00000,8.20007,7.79789
38.24399,0.66408,0.40734,0.78814,0.10885,0.10935,1.05915,0.01500,0.00721,2.20392,0.03188,-0.03472,2.04368,0.54224,0.01256,-0.30020,-0.66170,-3.64161,747.26879,779.16485,0.55418,12.24710,0.66170,-0.40234,0.00000,8.20007,7.79772
38.24499,0.61691,0.28909,0.74245,0.11096,0.10781,1.07869,0.01397,0.00356,2.20392,0.03277,-0.03381,2.05353,0.54224,0.01256,-0.30020,-0.66170,-3.64120,747.22607,779.16485,0.55414,12.24707,0.66170,-0.40277,0.00000,8.19978,7.79700
38.24599,0.61691,0.28909,0.74245,0.11096,0.10781,1.07869,0.01397,0.00356,2.20392,0.03277,-0.03381,2.05353,0.54224,0.01256,-0.30020,-0.66170,-3.64120,747.22607,779.16485,0.55414,12.24705,0.66170,-0.40320,0.00000,8.19978,7.79657
38.24700,0.61691,0.28909,0.74245,0.11214,0.11473,1.09865,0.01397,0.00356,2.20392,0.03277,-0.03381,2.05353,0.54224,0.01256,-0.30020,-0.66170,-3.64079,747.18414,775.12774,0.55410,12.24704,0.66170,-0.40365,0.00000,8.19978,7.79613
38.24800,0.61691,0.28909,0.74245,0.11214,0.11473,1.09865,0.01397,0.00356,2.20392,0.03277,-0.03381,2.05353,0.54224,0.01256,-0.30020,-0.66170,-3.64079,747.18414,775.12774,0.55410,12.24704,0.66139,-0.40409,0.00000,8.19978,7.79568
38.24900,0.61691,0.28909,0.74245,0.10287,0.12002,1.11850,0.01397,0.00356,2.20392,0.03277,-0.03381,2.05353,0.54224,0.01256,-0.30020,-0.66170,-3.64037,747.14160,775.12774,0.55406,12.24706,0.66139,-0.40454,0.00000,8.19978,7.79524
38.25000,0.61691,0.28909,0.74245,0.10287,0.12002,1.11850,0.01397,0.00356,2.20392,0.03277,-0.03381,2.05353,0.54224,0.01256,-0.30020,-0.66170,-3.64037,747.14160,775.12774,0.55406,12.24709,0.66139,-0.40498,0.00000,8.19978,7.79480
38.25099,0.61691,0.28909,0.74245,0.09149,0.11608,1.13055,0.01397,0.00356,2.20392,0.03277,-0.03381,2.05353,0.54224,0.01256,-0.30020,-0.66170,-3.63987,747.08978,773.79132,0.55401,12.24713,0.66139,-0.40562,0.00000,8.19978,7.79416
38.25199,0.61691,0.28909,0.74245,0.09149,0.11608,1.13055,0.01397,0.00356,2.20392,0.03277,-0.03381,2.05353,0.54224,0.01256,-0.30020,-0.66170,-3.63987,747.08978,775.12774,0.55401,12.24719,0.66139,-0.40625,0.00000,8.19978,7.79352
38.25299,0.61691,0.28909,0.74245,0.08819,0.11202,1.13424,0.01397,0.00356,2.20392,0.03277,-0.03381,2.05353,0.54224,0.01256,-0.30020,-0.66170,-3.63920,747.02105,773.79132,0.55394,12.24726,0.66139,-0.40705,0.00000,8.19978,7.79272
38.25400,0.61691,0.28909,0.74245,0.08819,0.11202,1.13424,0.01397,0.00356,2.20392,0.03277,-0.03381,2.05353,0.54224,0.01256,-0.30020,-0.66170,-3.63920,747.02105,775.12774,0.55394,12.24735,0.66139,-0.40785,0.00000,8.19978,7.79193
38.25500,0.50473,0.40979,0.68306,0.08634,0.11565,1.13840,0.00836,0.00939,2.20392,0.03347,-0.03280,2.06457,0.54179,0.01820,-0.30020,-0.66139,-3.64697,747.81793,775.79766,0.55468,12.24745,0.66139,-0.40849,0.00000,8.21786,7.80936
38.25600,0.50473,0.40979,0.68306,0.08634,0.11565,1.13840,0.00836,0.00939,2.20392,0.03347,-0.03280,2.06457,0.54179,0.01820,-0.30020,-0.66139,-3.64697,747.81793,775.12774,0.55468,12.24756,0.66139,-0.40914,0.00000,8.21786,7.80872
38.25699,0.50473,0.40979,0.68306,0.07747,0.11865,1.14635,0.00836,0.00939,2.20392,0.03347,-0.03280,2.06457,0.54179,0.01820,-0.30020,-0.66139,-3.64644,747.76354,775.12774,0.55462,12.24769,0.66139,-0.40963,0.00000,8.21786,7.80822
38.25799,0.50473,0.40979,0.68306,0.07747,0.11865,1.14635,0.00836,0.00939,2.20392,0.03347,-0.03280,2.06457,0.54179,0.01820,-0.30020,-0.66139,-3.64644,747.76354,775.12774,0.55462,12.24783,0.66059,-0.41012,0.00000,8.21786,7.80773
38.25899,0.50473,0.40979,0.68306,0.06924,0.11340,1.15181,0.00836,0.00939,2.20392,0.03347,-0.03280,2.06457,0.54179,0.01820,-0.30020,-0.66139,-3.64594,747.71215,775.79766,0.55456,12.24798,0.66059,-0.41070,0.00000,8.21786,7.80715
38.25999,0.50473,0.40979,0.68306,0.06924,0.11340,1.15181,0.00836,0.00939,2.20392,0.03347,-0.03280,2.06457,0.54179,0.01820,-0.30020,-0.66139,-3.64594,747.71215,772.45947,0.55456,12.24815,0.66059,-0.41128,0.00000,8.21786,7.80657
38.26100,0.50473,0.40979,0.68306,0.07010,0.10789,1.15257,0.00836,0.00939,2.20392,0.03347,-0.03280,2.06457,0.54179,0.01820,-0.30020,-0.66139,-3.64535,747.65161,772.45947,0.55449,12.24833,0.66059,-0.41196,0.00000,8.21786,7.80589
38.26200,0.50473,0.40979,0.68306,0.07010,0.10789,1.15257,0.00836,0.00939,2.20392,0.03347,-0.03280,2.06457,0.54179,0.01820,-0.30020,-0.66139,-3.64535,747.65161,775.79766,0.55449,12.24852,0.66059,-0.41265,0.00000,8.21786,7.80520
38.26300,0.50473,0.40979,0.68306,0.07093,0.10977,1.15460,0.00836,0.00939,2.20392,0.03347,-0.03280,2.06457,0.54179,0.01820,-0.30020,-0.66139,-3.64478,747.59368,775.12774,0.55441,12.24873,0.66059,-0.41317,0.00000,8.21786,7.80468
38.26399,0.50473,0.40979,0.68306,0.07093,0.10977,1.15460,0.00836,0.00939,2.20392,0.03347,-0.03280,2.06457,0.54179,0.01820,-0.30020,-0.66139,-3.64478,747.59368,775.12774,0.55441,12.24895,0.66059,-0.41370,0.00000,8.21786,7.80415
38.26499,0.70672,0.32943,0.62777,0.06120,0.11111,1.15912,0.01669,0.00785,2.20392,0.03391,-0.03177,2.07614,0.54060,0.04057,-0.30020,-0.66059,-3.67785,750.97692,775.12774,0.55758,12.24917,0.66059,-0.41386,0.00000,8.28934,7.87548
38.26599,0.70672,0.32943,0.62777,0.06120,0.11111,1.15912,0.01669,0.00785,2.20392,0.03391,-0.03177,2.07614,0.54060,0.04057,-0.30020,-0.66059,-3.67785,750.97692,773.79132,0.55758,12.24942,0.66059,-0.41402,0.00000,8.28934,7.87532
38.26699,0.70672,0.32943,0.62777,0.04916,0.10404,1.15880,0.01669,0.00785,2.20392,0.03391,-0.03177,2.07614,0.54060,0.04057,-0.30020,-0.66059,-3.67770,750.96197,772.45947,0.55754,12.24967,0.66059,-0.41417,0.00000,8.28934,7.87516
38.26800,0.70672,0.32943,0.62777,0.04916,0.10404,1.15880,0.01669,0.00785,2.20392,0.03391,-0.03177,2.07614,0.54060,0.04057,-0.30020,-0.66059,-3.67770,750.96197,773.79132,0.55754,12.24994,0.66059,-0.41433,0.00000,8.28934,7.87501
38.26900,0.70672,0.32943,0.62777,0.04654,0.09649,1.15155,0.01669,0.00785,2.20392,0.03391,-0.03177,2.07614,0.54060,0.04057,-0.30020,-0.66059,-3.67756,750.94805,775.12774,0.55750,12.25022,0.66059,-0.41446,0.00000,8.28934,7.87487
38.27000,0.70672,0.32943,0.62777,0.04654,0.09649,1.15155,0.01669,0.00785,2.20392,0.03391,-0.03177,2.07614,0.54060,0.04057,-0.30020,-0.66059,-3.67756,750.94805,773.79132,0.55750,12.25051,0.66059,-0.41460,0.00000,8.28934,7.87473
38.27099,0.70672,0.32943,0.62777,0.04673,0.09695,1.14518,0.01669,0.00785,2.20392,0.03391,-0.03177,2.07614,0.54060,0.04057,-0.30020,-0.66059,-3.67758,750.94995,775.12774,0.55748,12.25082,0.66059,-0.41442,0.00000,8.28934,7.87491
38.27199,0.70672,0.32943,0.62777,0.04673,0.09695,1.14518,0.01669,0.00785,2.20392,0.03391,-0.03177,2.07614,0.54060,0.04057,-0.30020,-0.66059,-3.67758,750.94995,775.12774,0.55748,12.25114,0.66059,-0.41425,0.00000,8.28934,7.87509
38.27299,0.70672,0.32943,0.62777,0.03835,0.09799,1.14363,0.01669,0.00785,2.20392,0.03391,-0.03177,2.07614,0.54060,0.04057,-0.30020,-0.66059,-3.67792,750.98480,775.79766,0.55748,12.25147,0.66059,-0.41369,0.00000,8.28934,7.87564
38.27399,0.70672,0.32943,0.62777,0.03835,0.09799,1.14363,0.01669,0.00785,2.20392,0.03391,-0.03177,2.07614,0.54060,0.04057,-0.30020,-0.66059,-3.67792,750.98480,775.79766,0.55748,12.25181,0.66059,-0.41314,0.00000,8.28934,7.87620
38.27500,0.61326,0.27167,0.57163,0.02751,0.09085,1.14123,0.01485,0.00526,2.20392,0.03414,-0.03092,2.08775,0.54060,0.04057,-0.30020,-0.66059,-3.67830,751.02307,775.79766,0.55749,12.25217,0.66059,-0.41251,0.00000,8.28896,7.87645
38.27600,0.61326,0.27167,0.57163,0.02751,0.09085,1.14123,0.01485,0.00526,2.20392,0.03414,-0.03092,2.08775,0.54060,0.04057,-0.30020,-0.66059,-3.67830,751.02307,780.51989,0.55749,12.25254,0.66059,-0.41188,0.00000,8.28896,7.87708
38.27700,0.61326,0.27167,0.57163,0.02541,0.08275,1.13486,0.01485,0.00526,2.20392,0.03414,-0.03092,2.08775,0.54060,0.04057,-0.30020,-0.66059,-3.67888,751.08227,780.51989,0.55751,12.25292,0.66059,-0.41127,0.00000,8.28896,7.87769
38.27799,0.61326,0.27167,0.57163,0.02541,0.08275,1.13486,0.01485,0.00526,2.20392,0.03414,-0.03092,2.08775,0.54060,0.04057,-0.30020,-0.66059,-3.67888,751.08227,781.19921,0.55751,12.25332,0.66009,-0.41066,0.00000,8.28896,7.87830
38.27899,0.61326,0.27167,0.57163,0.02539,0.08309,1.12945,0.01485,0.00526,2.20392,0.03414,-0.03092,2.08775,0.54060,0.04057,-0.30020,-0.66059,-3.67956,751.15167,781.19921,0.55754,12.25373,0.66009,-0.40981,0.00000,8.28896,7.87914
38.27999,0.61326,0.27167,0.57163,0.02539,0.08309,1.12945,0.01485,0.00526,2.20392,0.03414,-0.03092,2.08775,0.54060,0.04057,-0.30020,-0.66059,-3.67956,751.15167,781.19921,0.55754,12.25415,0.66009,-0.40897,0.00000,8.28896,7.87998
38.28099,0.61326,0.27167,0.57163,0.01469,0.08509,1.12623,0.01485,0.00526,2.20392,0.03414,-0.03092,2.08775,0.54060,0.04057,-0.30020,-0.66059,-3.68048,751.24584,780.51989,0.55759,12.25458,0.66009,-0.40784,0.00000,8.28896,7.88112
38.28200,0.61326,0.27167,0.57163,0.01469,0.08509,1.12623,0.01485,0.00526,2.20392,0.03414,-0.03092,2.08775,0.54060,0.04057,-0.30020,-0.66059,-3.68048,751.24584,780.51989,0.55759,12.25503,0.66009,-0.40670,0.00000,8.28896,7.88225
38.28300,0.61326,0.27167,0.57163,-0.00141,0.07889,1.11799,0.01485,0.00526,2.20392,0.03414,-0.03092,2.08775,0.54060,0.04057,-0.30020,-0.66059,-3.68154,751.35375,777.81445,0.55765,12.25549,0.66009,-0.40557,0.00000,8.28896,7.88338
38.28400,0.61326,0.27167,0.57163,-0.00141,0.07889,1.11799,0.01485,0.00526,2.20392,0.03414,-0.03092,2.08775,0.54060,0.04057,-0.30020,-0.66059,-3.68154,751.35375,770.47027,0.55765,12.25596,0.66009,-0.40444,0.00000,8.28896,7.88451
38.28499,0.43345,0.29502,0.51389,-0.00974,0.07083,1.10190,0.00572,0.00564,2.20392,0.03412,-0.03026,2.09914,0.53984,0.04491,-0.30020,-0.66009,-3.68934,752.15002,770.47027,0.55835,12.25644,0.66009,-0.40336,0.00000,8.30347,7.90010
38.28599,0.43345,0.29502,0.51389,-0.00974,0.07083,1.10190,0.00572,0.00564,2.20392,0.03412,-0.03026,2.09914,0.53984,0.04491,-0.30020,-0.66009,-3.68934,752.15002,770.47027,0.55835,12.25694,0.66009,-0.40229,0.00000,8.30347,7.90118
38.28699,0.43345,0.29502,0.51389,-0.01343,0.07100,1.08538,0.00572,0.00564,2.20392,0.03412,-0.03026,2.09914,0.53984,0.04491,-0.30020,-0.66009,-3.69045,752.26269,770.47027,0.55841,12.25744,0.66009,-0.40100,0.00000,8.30347,7.90247
38.28799,0.43345,0.29502,0.51389,-0.01343,0.07100,1.08538,0.00572,0.00564,2.20392,0.03412,-0.03026,2.09914,0.53984,0.04491,-0.30020,-0.66009,-3.69045,752.26269,767.17767,0.55841,12.25796,0.65899,-0.39970,0.00000,8.30347,7.90376
38.28900,0.43345,0.29502,0.51389,-0.02360,0.07322,1.07332,0.00572,0.00564,2.20392,0.03412,-0.03026,2.09914,0.53984,0.04491,-0.30020,-0.66009,-3.69181,752.40142,767.17767,0.55850,12.25849,0.65899,-0.39808,0.00000,8.30347,7.90538
38.29000,0.43345,0.29502,0.51389,-0.02360,0.07322,1.07332,0.00572,0.00564,2.20392,0.03412,-0.03026,2.09914,0.53984,0.04491,-0.30020,-0.66009,-3.69181,752.40142,767.17767,0.55850,12.25903,0.65899,-0.39646,0.00000,8.30347,7.90701
38.29100,0.43345,0.29502,0.51389,-0.03611,0.06681,1.06075,0.00572,0.00564,2.20392,0.03412,-0.03026,2.09914,0.53984,0.04491,-0.30020,-0.66009,-3.69333,752.55609,767.17767,0.55859,12.25959,0.65899,-0.39483,0.00000,8.30347,7.90863
38.29199,0.43345,0.29502,0.51389,-0.03611,0.06681,1.06075,0.00572,0.00564,2.20392,0.03412,-0.03026,2.09914,0.53984,0.04491,-0.30020,-0.66009,-3.69333,752.55609,767.17767,0.55859,12.26015,0.65899,-0.39320,0.00000,8.30347,7.91026
38.29299,0.43345,0.29502,0.51389,-0.03962,0.05742,1.04420,0.00572,0.00564,2.20392,0.03412,-0.03026,2.09914,0.53984,0.04491,-0.30020,-0.66009,-3.69476,752.70202,767.17767,0.55868,12.26072,0.65899,-0.39176,0.00000,8.30347,7.91170
38.29399,0.43345,0.29502,0.51389,-0.03962,0.05742,1.04420,0.00572,0.00564,2.20392,0.03412,-0.03026,2.09914,0.53984,0.04491,-0.30020,-0.66009,-3.69476,752.70202,767.17767,0.55868,12.26131,0.65899,-0.39032,0.00000,8.30347,7.91314
38.29499,0.58091,0.32735,0.45766,-0.03944,0.05636,1.02890,0.00945,0.00735,2.20392,0.03381,-0.02972,2.11019,0.53819,0.05939,-0.30020,-0.65899,-3.71892,755.15930,767.83392,0.56093,12.26190,0.65899,-0.38872,0.00000,8.35217,7.96344
38.29600,0.58091,0.32735,0.45766,-0.03944,0.05636,1.02890,0.00945,0.00735,2.20392,0.03381,-0.02972,2.11019,0.53819,0.05939,-0.30020,-0.65899,-3.71892,755.15930,767.83392,0.56093,12.26251,0.65899,-0.38712,0.00000,8.35217,7.96504
38.29700,0.58091,0.32735,0.45766,-0.04957,0.05897,1.01755,0.00945,0.00735,2.20392,0.03381,-0.02972,2.11019,0.53819,0.05939,-0.30020,-0.65899,-3.72051,755.32073,771.13220,0.56103,12.26313,0.65899,-0.38532,0.00000,8.35217,7.96685
38.29800,0.58091,0.32735,0.45766,-0.04957,0.05897,1.01755,0.00945,0.00735,2.20392,0.03381,-0.02972,2.11019,0.53819,0.05939,-0.30020,-0.65899,-3.72051,755.32073,768.49133,0.56103,12.26376,0.65899,-0.38351,0.00000,8.35217,7.96865
38.29899,0.58091,0.32735,0.45766,-0.06686,0.05388,1.00297,0.00945,0.00735,2.20392,0.03381,-0.02972,2.11019,0.53819,0.05939,-0.30020,-0.65899,-3.72217,755.48895,771.13220,0.56113,12.26439,0.65899,-0.38177,0.00000,8.35217,7.97040
38.29999,0.58091,0.32735,0.45766,-0.06686,0.05388,1.00297,0.00945,0.00735,2.20392,0.03381,-0.02972,2.11019,0.53819,0.05939,-0.30020,-0.65899,-3.72217,755.48895,771.13220,0.56113,12.26504,0.65899,-0.38003,0.00000,8.35217,7.97214
38.30099,0.58091,0.32735,0.45766,-0.07636,0.04479,0.98017,0.00945,0.00735,2.20392,0.03381,-0.02972,2.11019,0.53819,0.05939,-0.30020,-0.65899,-3.72371,755.64471,768.49133,0.56122,12.26570,0.65899,-0.37848,0.00000,8.35217,7.97368
38.30199,0.58091,0.32735,0.45766,-0.07636,0.04479,0.98017,0.00945,0.00735,2.20392,0.03381,-0.02972,2.11019,0.53819,0.05939,-0.30020,-0.65899,-3.72371,755.64471,768.49133,0.56122,12.26636,0.65899,-0.37694,0.00000,8.35217,7.97522
38.30300,0.58091,0.32735,0.45766,-0.07802,0.04288,0.95553,0.00945,0.00735,2.20392,0.03381,-0.02972,2.11019,0.53819,0.05939,-0.30020,-0.65899,-3.72518,755.79382,768.49133,0.56130,12.26704,0.65899,-0.37534,0.00000,8.35217,7.97683
38.30400,0.58091,0.32735,0.45766,-0.07802,0.04288,0.95553,0.00945,0.00735,2.20392,0.03381,-0.02972,2.11019,0.53819,0.05939,-0.30020,-0.65899,-3.72518,755.79382,768.49133,0.56130,12.26772,0.65899,-0.37373,0.00000,8.35217,7.97844
38.30500,0.59741,0.27837,0.40796,-0.08422,0.04519,0.93539,0.01048,0.00568,2.20392,0.03312,-0.02931,2.12049,0.53819,0.05939,-0.30020,-0.65899,-3.72678,755.95593,771.79522,0.56139,12.26842,0.65899,-0.37191,0.00000,8.35217,7.98025
38.30599,0.59741,0.27837,0.40796,-0.08422,0.04519,0.93539,0.01048,0.00568,2.20392,0.03312,-0.02931,2.12049,0.53819,0.05939,-0.30020,-0.65899,-3.72678,755.95593,771.13220,0.56139,12.26912,0.65899,-0.37009,0.00000,8.35217,7.98207
38.30699,0.59741,0.27837,0.40796,-0.09452,0.04112,0.91573,0.01048,0.00568,2.20392,0.03312,-0.02931,2.12049,0.53819,0.05939,-0.30020,-0.65899,-3.72844,756.12500,771.79522,0.56148,12.26983,0.65899,-0.36834,0.00000,8.35217,7.98382
38.30799,0.59741,0.27837,0.40796,-0.09452,0.04112,0.91573,0.01048,0.00568,2.20392,0.03312,-0.02931,2.12049,0.53819,0.05939,-0.30020,-0.65899,-3.72844,756.12500,771.79522,0.56148,12.27055,0.65759,-0.36659,0.00000,8.35217,7.98557
38.30899,0.59741,0.27837,0.40796,-0.09748,0.03371,0.89201,0.01048,0.00568,2.20392,0.03312,-0.02931,2.12049,0.53819,0.05939,-0.30020,-0.65899,-3.72994,756.27709,771.13220,0.56156,12.27129,0.65759,-0.36513,0.00000,8.35217,7.98703
38.31000,0.59741,0.27837,0.40796,-0.09748,0.03371,0.89201,0.01048,0.00568,2.20392,0.03312,-0.02931,2.12049,0.53819,0.05939,-0.30020,-0.65899,-3.72994,756.27709,771.79522,0.56156,12.27203,0.65759,-0.36366,0.00000,8.35217,7.98850
38.31100,0.59741,0.27837,0.40796,-0.09539,0.03351,0.86901,0.01048,0.00568,2.20392,0.03312,-0.02931,2.12049,0.53819,0.05939,-0.30020,-0.65899,-3.73128,756.41253,772.45947,0.56162,12.27278,0.65759,-0.36226,0.00000,8.35217,7.98990
38.31200,0.59741,0.27837,0.40796,-0.09539,0.03351,0.86901,0.01048,0.00568,2.20392,0.03312,-0.02931,2.12049,0.53819,0.05939,-0.30020,-0.65899,-3.73128,756.41253,772.45947,0.56162,12.27354,0.65759,-0.36087,0.00000,8.35217,7.99129
38.31299,0.59741,0.27837,0.40796,-0.10224,0.03697,0.85083,0.01048,0.00568,2.20392,0.03312,-0.02931,2.12049,0.53819,0.05939,-0.30020,-0.65899,-3.73263,756.54937,772.45947,0.56167,12.27431,0.65759,-0.35937,0.00000,8.35217,7.99279
38.31399,0.59741,0.27837,0.40796,-0.10224,0.03697,0.85083,0.01048,0.00568,2.20392,0.03312,-0.02931,2.12049,0.53819,0.05939,-0.30020,-0.65899,-3.73263,756.54937,774.45892,0.56167,12.27508,0.65759,-0.35788,0.00000,8.35217,7.99428
38.31499,0.49867,0.38182,0.35799,-0.11757,0.03202,0.83111,0.00564,0.01074,2.20392,0.03209,-0.02902,2.12988,0.53609,0.07601,-0.30020,-0.65759,-3.76023,759.34149,774.45892,0.56423,12.27587,0.65759,-0.35645,0.00000,8.40834,8.05189
38.31600,0.49867,0.38182,0.35799,-0.11757,0.03202,0.83111,0.00564,0.01074,2.20392,0.03209,-0.02902,2.12988,0.53609,0.07601,-0.30020,-0.65759,-3.76023,759.34149,778.48907,0.56423,12.27666,0.65759,-0.35501,0.00000,8.40834,8.05333
38.31700,0.49867,0.38182,0.35799,-0.12650,0.02111,0.80353,0.00564,0.01074,2.20392,0.03209,-0.02902,2.12988,0.53609,0.07601,-0.30020,-0.65759,-3.76139,759.45812,774.45892,0.56426,12.27746,0.65759,-0.35397,0.00000,8.40834,8.05437
38.31800,0.49867,0.38182,0.35799,-0.12650,0.02111,0.80353,0.00564,0.01074,2.20392,0.03209,-0.02902,2.12988,0.53609,0.07601,-0.30020,-0.65759,-3.76139,759.45812,774.45892,0.56426,12.27827,0.65579,-0.35293,0.00000,8.40834,8.05541
38.31900,0.49867,0.38182,0.35799,-0.12644,0.01723,0.77342,0.00564,0.01074,2.20392,0.03209,-0.02902,2.12988,0.53609,0.07601,-0.30020,-0.65759,-3.76227,759.54766,776.46875,0.56427,12.27909,0.65579,-0.35208,0.00000,8.40834,8.05626
38.31999,0.49867,0.38182,0.35799,-0.12644,0.01723,0.77342,0.00564,0.01074,2.20392,0.03209,-0.02902,2.12988,0.53609,0.07601,-0.30020,-0.65759,-3.76227,759.54766,778.48907,0.56427,12.27992,0.65579,-0.35122,0.00000,8.40834,8.05712
38.32099,0.49867,0.38182,0.35799,-0.12969,0.02003,0.74847,0.00564,0.01074,2.20392,0.03209,-0.02902,2.12988,0.53609,0.07601,-0.30020,-0.65759,-3.76309,759.63006,776.46875,0.56427,12.28075,0.65579,-0.35033,0.00000,8.40834,8.05801
38.32199,0.49867,0.38182,0.35799,-0.12969,0.02003,0.74847,0.00564,0.01074,2.20392,0.03209,-0.02902,2.12988,0.53609,0.07601,-0.30020,-0.65759,-3.76309,759.63006,776.46875,0.56427,12.28159,0.65579,-0.34944,0.00000,8.40834,8.05890
38.32300,0.49867,0.38182,0.35799,-0.13814,0.01725,0.72610,0.00564,0.01074,2.20392,0.03209,-0.02902,2.12988,0.53609,0.07601,-0.30020,-0.65759,-3.76385,759.70733,776.46875,0.56427,12.28244,0.65579,-0.34869,0.00000,8.40834,8.05965
38.32400,0.49867,0.38182,0.35799,-0.13814,0.01725,0.72610,0.00564,0.01074,2.20392,0.03209,-0.02902,2.12988,0.53609,0.07601,-0.30020,-0.65759,-3.76385,759.70733,776.46875,0.56427,12.28330,0.65579,-0.34794,0.00000,8.40834,8.06040
38.32500,0.62456,0.21723,0.32228,-0.14002,0.00800,0.70079,0.00996,0.00431,2.20392,0.03085,-0.02883,2.13813,0.53339,0.10057,-0.30020,-0.65579,-3.80262,763.60949,776.46875,0.56785,12.28417,0.65579,-0.34737,0.00000,8.49003,8.14266
38.32600,0.62456,0.21723,0.32228,-0.14002,0.00800,0.70079,0.00996,0.00431,2.20392,0.03085,-0.02883,2.13813,0.53339,0.10057,-0.30020,-0.65579,-3.80262,763.60949,776.46875,0.56785,12.28504,0.65579,-0.34680,0.00000,8.49003,8.14323
38.32699,0.62456,0.21723,0.32228,-0.13465,0.00287,0.67585,0.00996,0.00431,2.20392,0.03085,-0.02883,2.13813,0.53339,0.10057,-0.30020,-0.65579,-3.80306,763.65380,776.46875,0.56781,12.28592,0.65579,-0.34642,0.00000,8.49003,8.14361
38.32799,0.62456,0.21723,0.32228,-0.13465,0.00287,0.67585,0.00996,0.00431,2.20392,0.03085,-0.02883,2.13813,0.53339,0.10057,-0.30020,-0.65579,-3.80306,763.65380,776.46875,0.56781,12.28680,0.65579,-0.34605,0.00000,8.49003,8.14398
38.32899,0.62456,0.21723,0.32228,-0.13555,0.00184,0.65647,0.00996,0.00431,2.20392,0.03085,-0.02883,2.13813,0.53339,0.10057,-0.30020,-0.65579,-3.80338,763.68615,777.81445,0.56776,12.28770,0.65579,-0.34573,0.00000,8.49003,8.14430
38.33000,0.62456,0.21723,0.32228,-0.13555,0.00184,0.65647,0.00996,0.00431,2.20392,0.03085,-0.02883,2.13813,0.53339,0.10057,-0.30020,-0.65579,-3.80338,763.68615,777.81445,0.56776,12.28860,0.65579,-0.34541,0.00000,8.49003,8.14461
38.33100,0.62456,0.21723,0.32228,-0.14474,-0.00569,0.63799,0.00996,0.00431,2.20392,0.03085,-0.02883,2.13813,0.53339,0.10057,-0.30020,-0.65579,-3.80356,763.70404,783.24420,0.56769,12.28951,0.65579,-0.34535,0.00000,8.49003,8.14468
38.33200,0.62456,0.21723,0.32228,-0.14474,-0.00569,0.63799,0.00996,0.00431,2.20392,0.03085,-0.02883,2.13813,0.53339,0.10057,-0.30020,-0.65579,-3.80356,763.70404,779.84179,0.56769,12.29042,0.65579,-0.34529,0.00000,8.49003,8.14474
38.33300,0.62456,0.21723,0.32228,-0.14804,-0.01867,0.61325,0.00996,0.00431,2.20392,0.03085,-0.02883,2.13813,0.53339,0.10057,-0.30020,-0.65579,-3.80342,763.68957,779.84179,0.56760,12.29135,0.65579,-0.34566,0.00000,8.49003,8.14437
38.33399,0.62456,0.21723,0.32228,-0.14804,-0.01867,0.61325,0.00996,0.00431,2.20392,0.03085,-0.02883,2.13813,0.53339,0.10057,-0.30020,-0.65579,-3.80342,763.68957,783.24420,0.56760,12.29227,0.65579,-0.34603,0.00000,8.49003,8.14400
38.33499,0.61115,0.26268,0.28644,-0.14127,-0.02462,0.58558,0.01015,0.00461,2.20392,0.02945,-0.02876,2.14509,0.53339,0.10057,-0.30020,-0.65579,-3.80299,763.64691,783.24420,0.56747,12.29321,0.65579,-0.34660,0.00000,8.49006,8.14346
38.33599,0.61115,0.26268,0.28644,-0.14127,-0.02462,0.58558,0.01015,0.00461,2.20392,0.02945,-0.02876,2.14509,0.53339,0.10057,-0.30020,-0.65579,-3.80299,763.64691,779.84179,0.56747,12.29415,0.65579,-0.34717,0.00000,8.49006,8.14289
38.33700,0.61115,0.26268,0.28644,-0.13728,-0.02299,0.56260,0.01015,0.00461,2.20392,0.02945,-0.02876,2.14509,0.53339,0.10057,-0.30020,-0.65579,-3.80250,763.59710,779.84179,0.56734,12.29510,0.65579,-0.34766,0.00000,8.49006,8.14240
38.33800,0.61115,0.26268,0.28644,-0.13728,-0.02299,0.56260,0.01015,0.00461,2.20392,0.02945,-0.02876,2.14509,0.53339,0.10057,-0.30020,-0.65579,-3.80250,763.59710,779.84179,0.56734,12.29605,0.65439,-0.34816,0.00000,8.49006,8.14190
38.33900,0.61115,0.26268,0.28644,-0.14099,-0.02635,0.54296,0.01015,0.00461,2.20392,0.02945,-0.02876,2.14509,0.53339,0.10057,-0.30020,-0.65579,-3.80200,763.54681,779.84179,0.56720,12.29701,0.65439,-0.34873,0.00000,8.49006,8.14132
38.34000,0.61115,0.26268,0.28644,-0.14099,-0.02635,0.54296,0.01015,0.00461,2.20392,0.02945,-0.02876,2.14509,0.53339,0.10057,-0.30020,-0.65579,-3.80200,763.54681,781.19921,0.56720,12.29798,0.65439,-0.34931,0.00000,8.49006,8.14075
38.34099,0.61115,0.26268,0.28644,-0.14118,-0.03686,0.52104,0.01015,0.00461,2.20392,0.02945,-0.02876,2.14509,0.53339,0.10057,-0.30020,-0.65579,-3.80131,763.47790,779.84179,0.56705,12.29895,0.65439,-0.35020,0.00000,8.49006,8.13985
38.34199,0.61115,0.26268,0.28644,-0.14118,-0.03686,0.52104,0.01015,0.00461,2.20392,0.02945,-0.02876,2.14509,0.53339,0.10057,-0.30020,-0.65579,-3.80131,763.47790,772.45947,0.56705,12.29993,0.65439,-0.35110,0.00000,8.49006,8.13896
38.34299,0.61115,0.26268,0.28644,-0.13405,-0.04313,0.49933,0.01015,0.00461,2.20392,0.02945,-0.02876,2.14509,0.53339,0.10057,-0.30020,-0.65579,-3.80039,763.38574,772.45947,0.56687,12.30091,0.65439,-0.35217,0.00000,8.49006,8.13789
38.34400,0.61115,0.26268,0.28644,-0.13405,-0.04313,0.49933,0.01015,0.00461,2.20392,0.02945,-0.02876,2.14509,0.53339,0.10057,-0.30020,-0.65579,-3.80039,763.38574,772.45947,0.56687,12.30191,0.65439,-0.35324,0.00000,8.49006,8.13682
38.34500,0.64095,0.26692,0.25744,-0.13175,-0.04288,0.48357,0.01185,0.00418,2.20392,0.02807,-0.02896,2.15093,0.53129,0.12410,-0.30020,-0.65439,-3.83545,766.89843,772.45947,0.57007,12.30290,0.65439,-0.35414,0.00000,8.56710,8.21295
38.34600,0.64095,0.26692,0.25744,-0.13175,-0.04288,0.48357,0.01185,0.00418,2.20392,0.02807,-0.02896,2.15093,0.53129,0.12410,-0.30020,-0.65439,-3.83545,766.89843,772.45947,0.57007,12.30390,0.65439,-0.35505,0.00000,8.56710,8.21205
38.34700,0.64095,0.26692,0.25744,-0.13856,-0.04714,0.47010,0.01185,0.00418,2.20392,0.02807,-0.02896,2.15093,0.53129,0.12410,-0.30020,-0.65439,-3.83454,766.80804,772.45947,0.56989,12.30491,0.65439,-0.35608,0.00000,8.56710,8.21102
38.34799,0.64095,0.26692,0.25744,-0.13856,-0.04714,0.47010,0.01185,0.00418,2.20392,0.02807,-0.02896,2.15093,0.53129,0.12410,-0.30020,-0.65439,-3.83454,766.80804,765.86853,0.56989,12.30592,0.65199,-0.35711,0.00000,8.56710,8.20998
38.34899,0.64095,0.26692,0.25744,-0.14143,-0.05807,0.45110,0.01185,0.00418,2.20392,0.02807,-0.02896,2.15093,0.53129,0.12410,-0.30020,-0.65439,-3.83343,766.69708,777.14105,0.56969,12.30694,0.65199,-0.35846,0.00000,8.56710,8.20864
38.34999,0.64095,0.26692,0.25744,-0.14143,-0.05807,0.45110,0.01185,0.00418,2.20392,0.02807,-0.02896,2.15093,0.53129,0.12410,-0.30020,-0.65439,-3.83343,766.69708,777.14105,0.56969,12.30796,0.65199,-0.35980,0.00000,8.56710,8.20730
38.35100,0.64095,0.26692,0.25744,-0.13411,-0.06410,0.42864,0.01185,0.00418,2.20392,0.02807,-0.02896,2.15093,0.53129,0.12410,-0.30020,-0.65439,-3.83212,766.56555,777.14105,0.56948,12.30898,0.65199,-0.36127,0.00000,8.56710,8.20583
38.35200,0.64095,0.26692,0.25744,-0.13411,-0.06410,0.42864,0.01185,0.00418,2.20392,0.02807,-0.02896,2.15093,0.53129,0.12410,-0.30020,-0.65439,-3.83212,766.56555,765.86853,0.56948,12.31001,0.65199,-0.36274,0.00000,8.56710,8.20435
38.35300,0.64095,0.26692,0.25744,-0.12834,-0.06205,0.41069,0.01185,0.00418,2.20392,0.02807,-0.02896,2.15093,0.53129,0.12410,-0.30020,-0.65439,-3.83080,766.43389,777.14105,0.56926,12.31105,0.65199,-0.36409,0.00000,8.56710,8.20301
38.35400,0.64095,0.26692,0.25744,-0.12834,-0.06205,0.41069,0.01185,0.00418,2.20392,0.02807,-0.02896,2.15093,0.53129,0.12410,-0.30020,-0.65439,-3.83080,766.43389,779.16485,0.56926,12.31209,0.65199,-0.36544,0.00000,8.56710,8.20166
38.35499,0.77589,0.31694,0.23240,-0.13096,-0.06320,0.39639,0.01951,0.00628,2.20392,0.02679,-0.02938,2.15574,0.52769,0.13813,-0.30020,-0.65199,-3.85483,768.83367,779.16485,0.57141,12.31313,0.65199,-0.36665,0.00000,8.62111,8.25446
38.35599,0.77589,0.31694,0.23240,-0.13096,-0.06320,0.39639,0.01951,0.00628,2.20392,0.02679,-0.02938,2.15574,0.52769,0.13813,-0.30020,-0.65199,-3.85483,768.83367,779.16485,0.57141,12.31418,0.65199,-0.36787,0.00000,8.62111,8.25324
38.35699,0.77589,0.31694,0.23240,-0.13182,-0.07158,0.37877,0.01951,0.00628,2.20392,0.02679,-0.02938,2.15574,0.52769,0.13813,-0.30020,-0.65199,-3.85360,768.71124,779.16485,0.57120,12.31524,0.65199,-0.36928,0.00000,8.62111,8.25183
38.35800,0.77589,0.31694,0.23240,-0.13182,-0.07158,0.37877,0.01951,0.00628,2.20392,0.02679,-0.02938,2.15574,0.52769,0.13813,-0.30020,-0.65199,-3.85360,768.71124,779.16485,0.57120,12.31630,0.65199,-0.37070,0.00000,8.62111,8.25041
38.35900,0.77589,0.31694,0.23240,-0.12557,-0.07685,0.35868,0.01951,0.00628,2.20392,0.02679,-0.02938,2.15574,0.52769,0.13813,-0.30020,-0.65199,-3.85223,768.57464,779.16485,0.57097,12.31736,0.65199,-0.37221,0.00000,8.62111,8.24890
38.36000,0.77589,0.31694,0.23240,-0.12557,-0.07685,0.35868,0.01951,0.00628,2.20392,0.02679,-0.02938,2.15574,0.52769,0.13813,-0.30020,-0.65199,-3.85223,768.57464,779.16485,0.57097,12.31842,0.65199,-0.37373,0.00000,8.62111,8.24738
38.36100,0.77589,0.31694,0.23240,-0.12338,-0.07515,0.34229,0.01951,0.00628,2.20392,0.02679,-0.02938,2.15574,0.52769,0.13813,-0.30020,-0.65199,-3.85086,768.43756,779.16485,0.57074,12.31949,0.65199,-0.37516,0.00000,8.62111,8.24595
38.36199,0.77589,0.31694,0.23240,-0.12338,-0.07515,0.34229,0.01951,0.00628,2.20392,0.02679,-0.02938,2.15574,0.52769,0.13813,-0.30020,-0.65199,-3.85086,768.43756,777.81445,0.57074,12.32057,0.65199,-0.37658,0.00000,8.62111,8.24453
38.36299,0.77589,0.31694,0.23240,-0.13075,-0.07673,0.32758,0.01951,0.00628,2.20392,0.02679,-0.02938,2.15574,0.52769,0.13813,-0.30020,-0.65199,-3.84951,768.30334,777.81445,0.57052,12.32165,0.65199,-0.37804,0.00000,8.62111,8.24307
38.36399,0.77589,0.31694,0.23240,-0.13075,-0.07673,0.32758,0.01951,0.00628,2.20392,0.02679,-0.02938,2.15574,0.52769,0.13813,-0.30020,-0.65199,-3.84951,768.30334,777.81445,0.57052,12.32273,0.65199,-0.37949,0.00000,8.62111,8.24162
38.36500,0.63979,0.29313,0.21360,-0.13509,-0.08509,0.30725,0.01578,0.00564,2.20392,0.02558,-0.03002,2.15969,0.52769,0.13813,-0.30020,-0.65199,-3.84777,768.12969,777.81445,0.57026,12.32382,0.65199,-0.38116,0.00000,8.62051,8.23935
38.36600,0.63979,0.29313,0.21360,-0.13509,-0.08509,0.30725,0.01578,0.00564,2.20392,0.02558,-0.03002,2.15969,0.52769,0.13813,-0.30020,-0.65199,-3.84777,768.12969,777.81445,0.57026,12.32491,0.65199,-0.38283,0.00000,8.62051,8.23768
38.36700,0.63979,0.29313,0.21360,-0.12825,-0.08948,0.28304,0.01578,0.00564,2.20392,0.02558,-0.03002,2.15969,0.52769,0.13813,-0.30020,-0.65199,-3.84618,767.97113,777.81445,0.57001,12.32600,0.65199,-0.38456,0.00000,8.62051,8.23595
38.36800,0.63979,0.29313,0.21360,-0.12825,-0.08948,0.28304,0.01578,0.00564,2.20392,0.02558,-0.03002,2.15969,0.52769,0.13813,-0.30020,-0.65199,-3.84618,767.97113,777.81445,0.57001,12.32709,0.64919,-0.38629,0.00000,8.62051,8.23422
38.36899,0.63979,0.29313,0.21360,-0.12098,-0.08588,0.26322,0.01578,0.00564,2.20392,0.02558,-0.03002,2.15969,0.52769,0.13813,-0.30020,-0.65199,-3.84465,767.81848,784.61352,0.56976,12.32818,0.64919,-0.38784,0.00000,8.62051,8.23267
38.36999,0.63979,0.29313,0.21360,-0.12098,-0.08588,0.26322,0.01578,0.00564,2.20392,0.02558,-0.03002,2.15969,0.52769,0.13813,-0.30020,-0.65199,-3.84465,767.81848,777.81445,0.56976,12.32927,0.64919,-0.38938,0.00000,8.62051,8.23113
38.37099,0.63979,0.29313,0.21360,-0.12190,-0.08514,0.24759,0.01578,0.00564,2.20392,0.02558,-0.03002,2.15969,0.52769,0.13813,-0.30020,-0.65199,-3.84326,767.67889,777.81445,0.56953,12.33037,0.64919,-0.39083,0.00000,8.62051,8.22968
38.37200,0.63979,0.29313,0.21360,-0.12190,-0.08514,0.24759,0.01578,0.00564,2.20392,0.02558,-0.03002,2.15969,0.52769,0.13813,-0.30020,-0.65199,-3.84326,767.67889,777.81445,0.56953,12.33147,0.64919,-0.39228,0.00000,8.62051,8.22823
38.37300,0.63979,0.29313,0.21360,-0.12258,-0.09194,0.22876,0.01578,0.00564,2.20392,0.02558,-0.03002,2.15969,0.52769,0.13813,-0.30020,-0.65199,-3.84184,767.53698,784.61352,0.56930,12.33257,0.64919,-0.39387,0.00000,8.62051,8.22664
38.37400,0.63979,0.29313,0.21360,-0.12258,-0.09194,0.22876,0.01578,0.00564,2.20392,0.02558,-0.03002,2.15969,0.52769,0.13813,-0.30020,-0.65199,-3.84184,767.53698,784.61352,0.56930,12.33367,0.64919,-0.39546,0.00000,8.62051,8.22504
38.37500,0.73398,0.26212,0.19930,-0.11673,-0.09577,0.20664,0.02001,0.00374,2.20392,0.02445,-0.03082,2.16277,0.52349,0.16086,-0.30020,-0.64919,-3.87839,771.17974,784.61352,0.57260,12.33477,0.64919,-0.39698,0.00000,8.70189,8.30491
38.37599,0.73398,0.26212,0.19930,-0.11673,-0.09577,0.20664,0.02001,0.00374,2.20392,0.02445,-0.03082,2.16277,0.52349,0.16086,-0.30020,-0.64919,-3.87839,771.17974,783.24420,0.57260,12.33587,0.64919,-0.39849,0.00000,8.70189,8.30340
38.37699,0.73398,0.26212,0.19930,-0.11369,-0.09183,0.18776,0.02001,0.00374,2.20392,0.02445,-0.03082,2.16277,0.52349,0.16086,-0.30020,-0.64919,-3.87703,771.04443,785.29998,0.57237,12.33698,0.64919,-0.39989,0.00000,8.70189,8.30200
38.37799,0.73398,0.26212,0.19930,-0.11369,-0.09183,0.18776,0.02001,0.00374,2.20392,0.02445,-0.03082,2.16277,0.52349,0.16086,-0.30020,-0.64919,-3.87703,771.04443,785.29998,0.57237,12.33809,0.64919,-0.40129,0.00000,8.70189,8.30060
38.37900,0.73398,0.26212,0.19930,-0.11900,-0.09058,0.17124,0.02001,0.00374,2.20392,0.02445,-0.03082,2.16277,0.52349,0.16086,-0.30020,-0.64919,-3.87574,770.91601,785.98767,0.57215,12.33919,0.64919,-0.40266,0.00000,8.70189,8.29923
38.38000,0.73398,0.26212,0.19930,-0.11900,-0.09058,0.17124,0.02001,0.00374,2.20392,0.02445,-0.03082,2.16277,0.52349,0.16086,-0.30020,-0.64919,-3.87574,770.91601,785.98767,0.57215,12.34030,0.64919,-0.40402,0.00000,8.70189,8.29787
38.38100,0.73398,0.26212,0.19930,-0.12148,-0.09687,0.15001,0.02001,0.00374,2.20392,0.02445,-0.03082,2.16277,0.52349,0.16086,-0.30020,-0.64919,-3.87439,770.78210,785.98767,0.57192,12.34141,0.64919,-0.40554,0.00000,8.70189,8.29635
38.38199,0.73398,0.26212,0.19930,-0.12148,-0.09687,0.15001,0.02001,0.00374,2.20392,0.02445,-0.03082,2.16277,0.52349,0.16086,-0.30020,-0.64919,-3.87439,770.78210,785.98767,0.57192,12.34252,0.64919,-0.40706,0.00000,8.70189,8.29483
38.38299,0.73398,0.26212,0.19930,-0.11394,-0.09999,0.12530,0.02001,0.00374,2.20392,0.02445,-0.03082,2.16277,0.52349,0.16086,-0.30020,-0.64919,-3.87296,770.63970,785.98767,0.57168,12.34364,0.64919,-0.40861,0.00000,8.70189,8.29328
38.38399,0.73398,0.26212,0.19930,-0.11394,-0.09999,0.12530,0.02001,0.00374,2.20392,0.02445,-0.03082,2.16277,0.52349,0.16086,-0.30020,-0.64919,-3.87296,770.63970,785.98767,0.57168,12.34475,0.64919,-0.41015,0.00000,8.70189,8.29174
38.38499,0.64515,0.29352,0.18837,-0.10696,-0.09441,0.10575,0.01682,0.00426,2.20392,0.02345,-0.03167,2.16486,0.52349,0.16086,-0.30020,-0.64919,-3.87139,770.48376,783.24420,0.57144,12.34586,0.64919,-0.41147,0.00000,8.70140,8.28993
38.38600,0.64515,0.29352,0.18837,-0.10696,-0.09441,0.10575,0.01682,0.00426,2.20392,0.02345,-0.03167,2.16486,0.52349,0.16086,-0.30020,-0.64919,-3.87139,770.48376,784.61352,0.57144,12.34697,0.64919,-0.41279,0.00000,8.70140,8.28861
38.38700,0.64515,0.29352,0.18837,-0.10860,-0.09055,0.09217,0.01682,0.00426,2.20392,0.02345,-0.03167,2.16486,0.52349,0.16086,-0.30020,-0.64919,-3.87025,770.36968,784.61352,0.57123,12.34808,0.64919,-0.41392,0.00000,8.70140,8.28747
38.38800,0.64515,0.29352,0.18837,-0.10860,-0.09055,0.09217,0.01682,0.00426,2.20392,0.02345,-0.03167,2.16486,0.52349,0.16086,-0.30020,-0.64919,-3.87025,770.36968,780.51989,0.57123,12.34919,0.64599,-0.41506,0.00000,8.70140,8.28633
38.38899,0.64515,0.29352,0.18837,-0.10954,-0.09474,0.07705,0.01682,0.00426,2.20392,0.02345,-0.03167,2.16486,0.52349,0.16086,-0.30020,-0.64919,-3.86915,770.26055,780.51989,0.57102,12.35030,0.64599,-0.41627,0.00000,8.70140,8.28512
38.38999,0.64515,0.29352,0.18837,-0.10954,-0.09474,0.07705,0.01682,0.00426,2.20392,0.02345,-0.03167,2.16486,0.52349,0.16086,-0.30020,-0.64919,-3.86915,770.26055,780.51989,0.57102,12.35141,0.64599,-0.41748,0.00000,8.70140,8.28391
38.39099,0.64515,0.29352,0.18837,-0.10248,-0.09755,0.05922,0.01682,0.00426,2.20392,0.02345,-0.03167,2.16486,0.52349,0.16086,-0.30020,-0.64919,-3.86798,770.14422,780.51989,0.57081,12.35251,0.64599,-0.41877,0.00000,8.70140,8.28262
38.39199,0.64515,0.29352,0.18837,-0.10248,-0.09755,0.05922,0.01682,0.00426,2.20392,0.02345,-0.03167,2.16486,0.52349,0.16086,-0.30020,-0.64919,-3.86798,770.14422,784.61352,0.57081,12.35362,0.64599,-0.42006,0.00000,8.70140,8.28133
38.39300,0.64515,0.29352,0.18837,-0.09743,-0.09246,0.04500,0.01682,0.00426,2.20392,0.02345,-0.03167,2.16486,0.52349,0.16086,-0.30020,-0.64919,-3.86683,770.02966,784.61352,0.57060,12.35472,0.64599,-0.42124,0.00000,8.70140,8.28016
38.39400,0.64515,0.29352,0.18837,-0.09743,-0.09246,0.04500,0.01682,0.00426,2.20392,0.02345,-0.03167,2.16486,0.52349,0.16086,-0.30020,-0.64919,-3.86683,770.02966,784.61352,0.57060,12.35582,0.64599,-0.42241,0.00000,8.70140,8.27899
38.39500,0.75885,0.34737,0.18194,-0.10237,-0.08802,0.03424,0.02167,0.00670,2.20392,0.02252,-0.03258,2.16596,0.51869,0.18266,-0.30020,-0.64599,-3.90357,773.67901,784.61352,0.57391,12.35692,0.64599,-0.42331,0.00000,8.78214,8.35883
38.39599,0.75885,0.34737,0.18194,-0.10237,-0.08802,0.03424,0.02167,0.00670,2.20392,0.02252,-0.03258,2.16596,0.51869,0.18266,-0.30020,-0.64599,-3.90357,773.67901,790.13897,0.57391,12.35802,0.64599,-0.42421,0.00000,8.78214,8.35793
38.39699,0.75885,0.34737,0.18194,-0.10726,-0.08993,0.01939,0.02167,0.00670,2.20392,0.02252,-0.03258,2.16596,0.51869,0.18266,-0.30020,-0.64599,-3.90271,773.59350,790.13897,0.57373,12.35911,0.64599,-0.42516,0.00000,8.78214,8.35698
38.39799,0.75885,0.34737,0.18194,-0.10726,-0.08993,0.01939,0.02167,0.00670,2.20392,0.02252,-0.03258,2.16596,0.51869,0.18266,-0.30020,-0.64599,-3.90271,773.59350,790.13897,0.57373,12.36021,0.64249,-0.42611,0.00000,8.78214,8.35603
38.39899,0.75885,0.34737,0.18194,-0.10296,-0.08950,0.00026,0.02167,0.00670,2.20392,0.02252,-0.03258,2.16596,0.51869,0.18266,-0.30020,-0.64599,-3.90184,773.50744,790.13897,0.57354,12.36130,0.64249,-0.42702,0.00000,8.78214,8.35512
38.40000,0.75885,0.34737,0.18194,-0.10296,-0.08950,0.00026,0.02167,0.00670,2.20392,0.02252,-0.03258,2.16596,0.51869,0.18266,-0.30020,-0.64599,-3.90184,773.50744,790.13897,0.57354,12.36240,0.64249,-0.42793,0.00000,8.78214,8.35421
38.40100,0.75885,0.34737,0.18194,-0.09799,-0.08169,-0.01458,0.02167,0.00670,2.20392,0.02252,-0.03258,2.16596,0.51869,0.18266,-0.30020,-0.64599,-3.90112,773.43603,790.13897,0.57338,12.36349,0.64249,-0.42856,0.00000,8.78214,8.35358
38.40200,0.75885,0.34737,0.18194,-0.09799,-0.08169,-0.01458,0.02167,0.00670,2.20392,0.02252,-0.03258,2.16596,0.51869,0.18266,-0.30020,-0.64599,-3.90112,773.43603,788.05786,0.57338,12.36458,0.64249,-0.42919,0.00000,8.78214,8.35294
38.40299,0.75885,0.34737,0.18194,-0.10062,-0.07637,-0.02295,0.02167,0.00670,2.20392,0.02252,-0.03258,2.16596,0.51869,0.18266,-0.30020,-0.64599,-3.90063,773.38732,788.05786,0.57323,12.36567,0.64249,-0.42961,0.00000,8.78214,8.35252
38.40399,0.75885,0.34737,0.18194,-0.10062,-0.07637,-0.02295,0.02167,0.00670,2.20392,0.02252,-0.03258,2.16596,0.51869,0.18266,-0.30020,-0.64599,-3.90063,773.38732,788.75036,0.57323,12.36675,0.64249,-0.43003,0.00000,8.78214,8.35210
38.40499,0.78790,0.35688,0.18040,-0.10246,-0.07929,-0.03146,0.02483,0.00797,2.20392,0.02172,-0.03344,2.16628,0.51344,0.20385,-0.30020,-0.64249,-3.93767,777.05120,790.13897,0.57655,12.36783,0.64249,-0.43037,0.00000,8.86222,8.43185
38.40599,0.78790,0.35688,0.18040,-0.10246,-0.07929,-0.03146,0.02483,0.00797,2.20392,0.02172,-0.03344,2.16628,0.51344,0.20385,-0.30020,-0.64249,-3.93767,777.05120,790.13897,0.57655,12.36892,0.64249,-0.43070,0.00000,8.86222,8.43152
38.40700,0.78790,0.35688,0.18040,-0.09613,-0.07995,-0.04189,0.02483,0.00797,2.20392,0.02172,-0.03344,2.16628,0.51344,0.20385,-0.30020,-0.64249,-3.93732,777.01629,794.33441,0.57641,12.37000,0.64249,-0.43112,0.00000,8.86222,8.43109
38.40800,0.78790,0.35688,0.18040,-0.09613,-0.07995,-0.04189,0.02483,0.00797,2.20392,0.02172,-0.03344,2.16628,0.51344,0.20385,-0.30020,-0.64249,-3.93732,777.01629,795.03796,0.57641,12.37107,0.64249,-0.43155,0.00000,8.86222,8.43067
38.40900,0.78790,0.35688,0.18040,-0.09153,-0.07128,-0.04873,0.02483,0.00797,2.20392,0.02172,-0.03344,2.16628,0.51344,0.20385,-0.30020,-0.64249,-3.93699,776.98413,795.03796,0.57628,12.37215,0.64249,-0.43182,0.00000,8.86222,8.43040
38.40999,0.78790,0.35688,0.18040,-0.09153,-0.07128,-0.04873,0.02483,0.00797,2.20392,0.02172,-0.03344,2.16628,0.51344,0.20385,-0.30020,-0.64249,-3.93699,776.98413,795.03796,0.57628,12.37322,0.64249,-0.43209,0.00000,8.86222,8.43012
38.41099,0.78790,0.35688,0.18040,-0.09727,-0.06297,-0.05222,0.02483,0.00797,2.20392,0.02172,-0.03344,2.16628,0.51344,0.20385,-0.30020,-0.64249,-3.93681,776.96636,795.03796,0.57617,12.37430,0.64249,-0.43221,0.00000,8.86222,8.43001
38.41199,0.78790,0.35688,0.18040,-0.09727,-0.06297,-0.05222,0.02483,0.00797,2.20392,0.02172,-0.03344,2.16628,0.51344,0.20385,-0.30020,-0.64249,-3.93681,776.96636,795.03796,0.57617,12.37537,0.64249,-0.43232,0.00000,8.86222,8.42990
38.41299,0.78790,0.35688,0.18040,-0.10325,-0.06263,-0.05978,0.02483,0.00797,2.20392,0.02172,-0.03344,2.16628,0.51344,0.20385,-0.30020,-0.64249,-3.93669,776.95416,795.03796,0.57605,12.37643,0.64249,-0.43247,0.00000,8.86222,8.42975
38.41400,0.78790,0.35688,0.18040,-0.10325,-0.06263,-0.05978,0.02483,0.00797,2.20392,0.02172,-0.03344,2.16628,0.51344,0.20385,-0.30020,-0.64249,-3.93669,776.95416,795.74279,0.57605,12.37750,0.64249,-0.43262,0.00000,8.86222,8.42959
38.41500,0.67477,0.32045,0.18305,-0.09894,-0.06185,-0.07209,0.02071,0.00673,2.20392,0.02095,-0.03419,2.16595,0.51344,0.20385,-0.30020,-0.64249,-3.93612,776.89770,795.03796,0.57590,12.37856,0.64249,-0.43278,0.00000,8.86131,8.42852
38.41600,0.67477,0.32045,0.18305,-0.09894,-0.06185,-0.07209,0.02071,0.00673,2.20392,0.02095,-0.03419,2.16595,0.51344,0.20385,-0.30020,-0.64249,-3.93612,776.89770,783.92828,0.57590,12.37962,0.64249,-0.43295,0.00000,8.86131,8.42836
38.41699,0.67477,0.32045,0.18305,-0.09204,-0.05382,-0.08099,0.02071,0.00673,2.20392,0.02095,-0.03419,2.16595,0.51344,0.20385,-0.30020,-0.64249,-3.93607,776.89300,783.92828,0.57580,12.38068,0.64249,-0.43289,0.00000,8.86131,8.42842
38.41799,0.67477,0.32045,0.18305,-0.09204,-0.05382,-0.08099,0.02071,0.00673,2.20392,0.02095,-0.03419,2.16595,0.51344,0.20385,-0.30020,-0.64249,-3.93607,776.89300,783.92828,0.57580,12.38173,0.63999,-0.43283,0.00000,8.86131,8.42848
38.41899,0.67477,0.32045,0.18305,-0.09181,-0.04663,-0.08392,0.02071,0.00673,2.20392,0.02095,-0.03419,2.16595,0.51344,0.20385,-0.30020,-0.64249,-3.93622,776.90771,774.45892,0.57572,12.38278,0.63999,-0.43257,0.00000,8.86131,8.42874
38.41999,0.67477,0.32045,0.18305,-0.09181,-0.04663,-0.08392,0.02071,0.00673,2.20392,0.02095,-0.03419,2.16595,0.51344,0.20385,-0.30020,-0.64249,-3.93622,776.90771,783.92828,0.57572,12.38384,0.63999,-0.43231,0.00000,8.86131,8.42900
38.42100,0.67477,0.32045,0.18305,-0.09126,-0.04623,-0.08736,0.02071,0.00673,2.20392,0.02095,-0.03419,2.16595,0.51344,0.20385,-0.30020,-0.64249,-3.93643,776.92871,783.92828,0.57564,12.38489,0.63999,-0.43211,0.00000,8.86131,8.42919
38.42200,0.67477,0.32045,0.18305,-0.09126,-0.04623,-0.08736,0.02071,0.00673,2.20392,0.02095,-0.03419,2.16595,0.51344,0.20385,-0.30020,-0.64249,-3.93643,776.92871,783.92828,0.57564,12.38593,0.63999,-0.43191,0.00000,8.86131,8.42939
38.42300,0.67477,0.32045,0.18305,-0.08334,-0.04384,-0.09356,0.02071,0.00673,2.20392,0.02095,-0.03419,2.16595,0.51344,0.20385,-0.30020,-0.64249,-3.93658,776.94390,782.56134,0.57555,12.38698,0.63999,-0.43178,0.00000,8.86131,8.42952
38.42399,0.67477,0.32045,0.18305,-0.08334,-0.04384,-0.09356,0.02071,0.00673,2.20392,0.02095,-0.03419,2.16595,0.51344,0.20385,-0.30020,-0.64249,-3.93658,776.94390,791.53253,0.57555,12.38802,0.63999,-0.43165,0.00000,8.86131,8.42966
38.42499,0.79152,0.32393,0.18643,-0.07733,-0.03337,-0.09729,0.02546,0.00647,2.20392,0.02022,-0.03472,2.16531,0.50969,0.22201,-0.30020,-0.63999,-3.96801,780.03900,782.56134,0.57834,12.38907,0.63999,-0.43121,0.00000,8.92803,8.49682
38.42599,0.79152,0.32393,0.18643,-0.07733,-0.03337,-0.09729,0.02546,0.00647,2.20392,0.02022,-0.03472,2.16531,0.50969,0.22201,-0.30020,-0.63999,-3.96801,780.03900,791.53253,0.57834,12.39010,0.63999,-0.43077,0.00000,8.92803,8.49726
38.42699,0.79152,0.32393,0.18643,-0.08141,-0.02425,-0.09836,0.02546,0.00647,2.20392,0.02022,-0.03472,2.16531,0.50969,0.22201,-0.30020,-0.63999,-3.96851,780.08758,792.23114,0.57829,12.39114,0.63999,-0.43015,0.00000,8.92803,8.49788
38.42800,0.79152,0.32393,0.18643,-0.08141,-0.02425,-0.09836,0.02546,0.00647,2.20392,0.02022,-0.03472,2.16531,0.50969,0.22201,-0.30020,-0.63999,-3.96851,780.08758,792.23114,0.57829,12.39218,0.63589,-0.42953,0.00000,8.92803,8.49849
38.42900,0.79152,0.32393,0.18643,-0.08547,-0.02352,-0.10416,0.02546,0.00647,2.20392,0.02022,-0.03472,2.16531,0.50969,0.22201,-0.30020,-0.63999,-3.96906,780.14251,792.23114,0.57824,12.39321,0.63589,-0.42895,0.00000,8.92803,8.49907
38.43000,0.79152,0.32393,0.18643,-0.08547,-0.02352,-0.10416,0.02546,0.00647,2.20392,0.02022,-0.03472,2.16531,0.50969,0.22201,-0.30020,-0.63999,-3.96906,780.14251,791.53253,0.57824,12.39424,0.63589,-0.42837,0.00000,8.92803,8.49965
38.43099,0.79152,0.32393,0.18643,-0.07931,-0.02202,-0.11604,0.02546,0.00647,2.20392,0.02022,-0.03472,2.16531,0.50969,0.22201,-0.30020,-0.63999,-3.96960,780.19537,792.23114,0.57819,12.39527,0.63589,-0.42780,0.00000,8.92803,8.50022
38.43199,0.79152,0.32393,0.18643,-0.07931,-0.02202,-0.11604,0.02546,0.00647,2.20392,0.02022,-0.03472,2.16531,0.50969,0.22201,-0.30020,-0.63999,-3.96960,780.19537,792.23114,0.57819,12.39630,0.63589,-0.42723,0.00000,8.92803,8.50080
38.43299,0.79152,0.32393,0.18643,-0.07138,-0.01243,-0.12622,0.02546,0.00647,2.20392,0.02022,-0.03472,2.16531,0.50969,0.22201,-0.30020,-0.63999,-3.97025,780.25854,792.23114,0.57816,12.39732,0.63589,-0.42642,0.00000,8.92803,8.50160
38.43399,0.79152,0.32393,0.18643,-0.07138,-0.01243,-0.12622,0.02546,0.00647,2.20392,0.02022,-0.03472,2.16531,0.50969,0.22201,-0.30020,-0.63999,-3.97025,780.25854,792.23114,0.57816,12.39835,0.63589,-0.42562,0.00000,8.92803,8.50241
38.43500,0.74044,0.38874,0.18976,-0.07200,-0.00335,-0.13170,0.02430,0.00953,2.20392,0.01958,-0.03504,2.16443,0.50354,0.23929,-0.30020,-0.63589,-4.00398,783.56658,791.53253,0.58114,12.39937,0.63589,-0.42446,0.00000,8.99831,8.57384
38.43600,0.74044,0.38874,0.18976,-0.07200,-0.00335,-0.13170,0.02430,0.00953,2.20392,0.01958,-0.03504,2.16443,0.50354,0.23929,-0.30020,-0.63589,-4.00398,783.56658,791.53253,0.58114,12.40038,0.63589,-0.42330,0.00000,8.99831,8.57500
38.43700,0.74044,0.38874,0.18976,-0.07433,-0.00182,-0.13800,0.02430,0.00953,2.20392,0.01958,-0.03504,2.16443,0.50354,0.23929,-0.30020,-0.63589,-4.00503,783.66943,791.53253,0.58114,12.40140,0.63589,-0.42221,0.00000,8.99831,8.57609
38.43799,0.74044,0.38874,0.18976,-0.07433,-0.00182,-0.13800,0.02430,0.00953,2.20392,0.01958,-0.03504,2.16443,0.50354,0.23929,-0.30020,-0.63589,-4.00503,783.66943,790.83514,0.58114,12.40241,0.63589,-0.42112,0.00000,8.99831,8.57719
38.43899,0.74044,0.38874,0.18976,-0.06992,0.00065,-0.14638,0.02430,0.00953,2.20392,0.01958,-0.03504,2.16443,0.50354,0.23929,-0.30020,-0.63589,-4.00601,783.76483,788.05786,0.58113,12.40342,0.63589,-0.42012,0.00000,8.99831,8.57818
38.43999,0.74044,0.38874,0.18976,-0.06992,0.00065,-0.14638,0.02430,0.00953,2.20392,0.01958,-0.03504,2.16443,0.50354,0.23929,-0.30020,-0.63589,-4.00601,783.76483,788.05786,0.58113,12.40443,0.63589,-0.41913,0.00000,8.99831,8.57918
38.44100,0.74044,0.38874,0.18976,-0.06681,0.01074,-0.15088,0.02430,0.00953,2.20392,0.01958,-0.03504,2.16443,0.50354,0.23929,-0.30020,-0.63589,-4.00699,783.86059,787.36657,0.58113,12.40544,0.63589,-0.41803,0.00000,8.99831,8.58028
38.44200,0.74044,0.38874,0.18976,-0.06681,0.01074,-0.15088,0.02430,0.00953,2.20392,0.01958,-0.03504,2.16443,0.50354,0.23929,-0.30020,-0.63589,-4.00699,783.86059,786.67651,0.58113,12.40644,0.63589,-0.41692,0.00000,8.99831,8.58138
38.44300,0.74044,0.38874,0.18976,-0.07358,0.01958,-0.15122,0.02430,0.00953,2.20392,0.01958,-0.03504,2.16443,0.50354,0.23929,-0.30020,-0.63589,-4.00806,783.96582,786.67651,0.58113,12.40744,0.63589,-0.41572,0.00000,8.99831,8.58258
38.44400,0.74044,0.38874,0.18976,-0.07358,0.01958,-0.15122,0.02430,0.00953,2.20392,0.01958,-0.03504,2.16443,0.50354,0.23929,-0.30020,-0.63589,-4.00806,783.96582,786.67651,0.58113,12.40844,0.63589,-0.41452,0.00000,8.99831,8.58378
38.44499,0.69268,0.33463,0.19699,-0.08150,0.02051,-0.15504,0.02169,0.00794,2.20392,0.01902,-0.03509,2.16323,0.50354,0.23929,-0.30020,-0.63589,-4.00882,784.04016,786.67651,0.58111,12.40944,0.63589,-0.41343,0.00000,8.99764,8.58421
38.44599,0.69268,0.33463,0.19699,-0.08150,0.02051,-0.15504,0.02169,0.00794,2.20392,0.01902,-0.03509,2.16323,0.50354,0.23929,-0.30020,-0.63589,-4.00882,784.04016,787.36657,0.58111,12.41043,0.63589,-0.41234,0.00000,8.99764,8.58530
38.44699,0.69268,0.33463,0.19699,-0.08077,0.02293,-0.16376,0.02169,0.00794,2.20392,0.01902,-0.03509,2.16323,0.50354,0.23929,-0.30020,-0.63589,-4.00982,784.13739,787.36657,0.58111,12.41142,0.63589,-0.41130,0.00000,8.99764,8.58634
38.44800,0.69268,0.33463,0.19699,-0.08077,0.02293,-0.16376,0.02169,0.00794,2.20392,0.01902,-0.03509,2.16323,0.50354,0.23929,-0.30020,-0.63589,-4.00982,784.13739,788.05786,0.58111,12.41241,0.63159,-0.41026,0.00000,8.99764,8.58737
38.44900,0.69268,0.33463,0.19699,-0.07845,0.03416,-0.16956,0.02169,0.00794,2.20392,0.01902,-0.03509,2.16323,0.50354,0.23929,-0.30020,-0.63589,-4.01090,784.24279,792.23114,0.58111,12.41340,0.63159,-0.40899,0.00000,8.99764,8.58865
38.45000,0.69268,0.33463,0.19699,-0.07845,0.03416,-0.16956,0.02169,0.00794,2.20392,0.01902,-0.03509,2.16323,0.50354,0.23929,-0.30020,-0.63589,-4.01090,784.24279,792.23114,0.58111,12.41438,0.63159,-0.40772,0.00000,8.99764,8.58992
38.45100,0.69268,0.33463,0.19699,-0.08256,0.04524,-0.16996,0.02169,0.00794,2.20392,0.01902,-0.03509,2.16323,0.50354,0.23929,-0.30020,-0.63589,-4.01220,784.37036,792.23114,0.58114,12.41536,0.63159,-0.40620,0.00000,8.99764,8.59144
38.45199,0.69268,0.33463,0.19699,-0.08256,0.04524,-0.16996,0.02169,0.00794,2.20392,0.01902,-0.03509,2.16323,0.50354,0.23929,-0.30020,-0.63589,-4.01220,784.37036,792.23114,0.58114,12.41634,0.63159,-0.40468,0.00000,8.99764,8.59296
38.45299,0.69268,0.33463,0.19699,-0.08531,0.04861,-0.17150,0.02169,0.00794,2.20392,0.01902,-0.03509,2.16323,0.50354,0.23929,-0.30020,-0.63589,-4.01361,784.50830,792.23114,0.58117,12.41732,0.63159,-0.40317,0.00000,8.99764,8.59446
38.45399,0.69268,0.33463,0.19699,-0.08531,0.04861,-0.17150,0.02169,0.00794,2.20392,0.01902,-0.03509,2.16323,0.50354,0.23929,-0.30020,-0.63589,-4.01361,784.50830,792.23114,0.58117,12.41829,0.63159,-0.40167,0.00000,8.99764,8.59597
38.45500,0.81780,0.37373,0.20397,-0.07979,0.05256,-0.17613,0.02690,0.00974,2.20392,0.01842,-0.03490,2.16173,0.49709,0.25371,-0.30020,-0.63159,-4.04489,787.55877,792.23114,0.58392,12.41926,0.63159,-0.40010,0.00000,9.06154,8.66143
38.45600,0.81780,0.37373,0.20397,-0.07979,0.05256,-0.17613,0.02690,0.00974,2.20392,0.01842,-0.03490,2.16173,0.49709,0.25371,-0.30020,-0.63159,-4.04489,787.55877,782.56134,0.58392,12.42023,0.63159,-0.39854,0.00000,9.06154,8.66300
38.45700,0.81780,0.37373,0.20397,-0.07637,0.06369,-0.17792,0.02690,0.00974,2.20392,0.01842,-0.03490,2.16173,0.49709,0.25371,-0.30020,-0.63159,-4.04642,787.70825,782.56134,0.58396,12.42119,0.63159,-0.39682,0.00000,9.06154,8.66472
38.45800,0.81780,0.37373,0.20397,-0.07637,0.06369,-0.17792,0.02690,0.00974,2.20392,0.01842,-0.03490,2.16173,0.49709,0.25371,-0.30020,-0.63159,-4.04642,787.70825,782.56134,0.58396,12.42216,0.62690,-0.39510,0.00000,9.06154,8.66644
38.45899,0.81780,0.37373,0.20397,-0.08436,0.07285,-0.17656,0.02690,0.00974,2.20392,0.01842,-0.03490,2.16173,0.49709,0.25371,-0.30020,-0.63159,-4.04809,787.87042,782.56134,0.58402,12.42312,0.62690,-0.39325,0.00000,9.06154,8.66829
38.45999,0.81780,0.37373,0.20397,-0.08436,0.07285,-0.17656,0.02690,0.00974,2.20392,0.01842,-0.03490,2.16173,0.49709,0.25371,-0.30020,-0.63159,-4.04809,787.87042,782.56134,0.58402,12.42407,0.62690,-0.39140,0.00000,9.06154,8.67014
38.46099,0.81780,0.37373,0.20397,-0.09379,0.07285,-0.18019,0.02690,0.00974,2.20392,0.01842,-0.03490,2.16173,0.49709,0.25371,-0.30020,-0.63159,-4.04977,788.03369,782.56134,0.58409,12.42503,0.62690,-0.38966,0.00000,9.06154,8.67188
38.46200,0.81780,0.37373,0.20397,-0.09379,0.07285,-0.18019,0.02690,0.00974,2.20392,0.01842,-0.03490,2.16173,0.49709,0.25371,-0.30020,-0.63159,-4.04977,788.03369,782.56134,0.58409,12.42598,0.62690,-0.38791,0.00000,9.06154,8.67362
38.46300,0.81780,0.37373,0.20397,-0.09335,0.07244,-0.19080,0.02690,0.00974,2.20392,0.01842,-0.03490,2.16173,0.49709,0.25371,-0.30020,-0.63159,-4.05134,788.18731,792.23114,0.58414,12.42693,0.62690,-0.38627,0.00000,9.06154,8.67526
38.46400,0.81780,0.37373,0.20397,-0.09335,0.07244,-0.19080,0.02690,0.00974,2.20392,0.01842,-0.03490,2.16173,0.49709,0.25371,-0.30020,-0.63159,-4.05134,788.18731,792.23114,0.58414,12.42787,0.62690,-0.38463,0.00000,9.06154,8.67690
38.46500,0.83998,0.35495,0.21293,-0.09018,0.07898,-0.20051,0.02976,0.00959,2.20392,0.01772,-0.03436,2.16006,0.49005,0.27494,-0.30020,-0.62690,-4.09299,792.22766,792.23114,0.58780,12.42882,0.62690,-0.38271,0.00000,9.14714,8.76443
38.46599,0.83998,0.35495,0.21293,-0.09018,0.07898,-0.20051,0.02976,0.00959,2.20392,0.01772,-0.03436,2.16006,0.49005,0.27494,-0.30020,-0.62690,-4.09299,792.22766,792.23114,0.58780,12.42976,0.62690,-0.38078,0.00000,9.14714,8.76635
38.46699,0.83998,0.35495,0.21293,-0.09400,0.08457,-0.20592,0.02976,0.00959,2.20392,0.01772,-0.03436,2.16006,0.49005,0.27494,-0.30020,-0.62690,-4.09483,792.40570,795.03796,0.58788,12.43070,0.62690,-0.37877,0.00000,9.14714,8.76837
38.46799,0.83998,0.35495,0.21293,-0.09400,0.08457,-0.20592,0.02976,0.00959,2.20392,0.01772,-0.03436,2.16006,0.49005,0.27494,-0.30020,-0.62690,-4.09483,792.40570,795.03796,0.58788,12.43163,0.62690,-0.37675,0.00000,9.14714,8.77039
38.46900,0.83998,0.35495,0.21293,-0.09837,0.08265,-0.21254,0.02976,0.00959,2.20392,0.01772,-0.03436,2.16006,0.49005,0.27494,-0.30020,-0.62690,-4.09664,792.58081,795.03796,0.58795,12.43256,0.62690,-0.37489,0.00000,9.14714,8.77225
38.47000,0.83998,0.35495,0.21293,-0.09837,0.08265,-0.21254,0.02976,0.00959,2.20392,0.01772,-0.03436,2.16006,0.49005,0.27494,-0.30020,-0.62690,-4.09664,792.58081,792.23114,0.58795,12.43349,0.62690,-0.37303,0.00000,9.14714,8.77410
38.47100,0.83998,0.35495,0.21293,-0.09585,0.08136,-0.22190,0.02976,0.00959,2.20392,0.01772,-0.03436,2.16006,0.49005,0.27494,-0.30020,-0.62690,-4.09829,792.74078,795.03796,0.58801,12.43441,0.62690,-0.37135,0.00000,9.14714,8.77579
38.47200,0.83998,0.35495,0.21293,-0.09585,0.08136,-0.22190,0.02976,0.00959,2.20392,0.01772,-0.03436,2.16006,0.49005,0.27494,-0.30020,-0.62690,-4.09829,792.74078,796.44885,0.58801,12.43533,0.62690,-0.36967,0.00000,9.14714,8.77747
38.47299,0.83998,0.35495,0.21293,-0.09493,0.08717,-0.22836,0.02976,0.00959,2.20392,0.01772,-0.03436,2.16006,0.49005,0.27494,-0.30020,-0.62690,-4.09986,792.89270,799.28570,0.58807,12.43625,0.62690,-0.36799,0.00000,9.14714,8.77915
38.47399,0.83998,0.35495,0.21293,-0.09493,0.08717,-0.22836,0.02976,0.00959,2.20392,0.01772,-0.03436,2.16006,0.49005,0.27494,-0.30020,-0.62690,-4.09986,792.89270,796.44885,0.58807,12.43717,0.62690,-0.36631,0.00000,9.14714,8.78083
38.47499,0.73247,0.32653,0.22295,-0.10378,0.09181,-0.23185,0.02580,0.00846,2.20392,0.01692,-0.03364,2.15821,0.49005,0.27494,-0.30020,-0.62690,-4.10089,792.99249,799.28570,0.58807,12.43808,0.62690,-0.36468,0.00000,9.14605,8.78136
38.47600,0.73247,0.32653,0.22295,-0.10378,0.09181,-0.23185,0.02580,0.00846,2.20392,0.01692,-0.03364,2.15821,0.49005,0.27494,-0.30020,-0.62690,-4.10089,792.99249,799.28570,0.58807,12.43899,0.62690,-0.36305,0.00000,9.14605,8.78299
38.47700,0.73247,0.32653,0.22295,-0.11323,0.08933,-0.23954,0.02580,0.00846,2.20392,0.01692,-0.03364,2.15821,0.49005,0.27494,-0.30020,-0.62690,-4.10230,793.12890,796.44885,0.58811,12.43990,0.62690,-0.36166,0.00000,9.14605,8.78438
38.47800,0.73247,0.32653,0.22295,-0.11323,0.08933,-0.23954,0.02580,0.00846,2.20392,0.01692,-0.03364,2.15821,0.49005,0.27494,-0.30020,-0.62690,-4.10230,793.12890,796.44885,0.58811,12.44080,0.62199,-0.36027,0.00000,9.14605,8.78577
38.47900,0.73247,0.32653,0.22295,-0.11327,0.08837,-0.25217,0.02580,0.00846,2.20392,0.01692,-0.03364,2.15821,0.49005,0.27494,-0.30020,-0.62690,-4.10354,793.24871,796.44885,0.58814,12.44170,0.62199,-0.35900,0.00000,9.14605,8.78704
38.47999,0.73247,0.32653,0.22295,-0.11327,0.08837,-0.25217,0.02580,0.00846,2.20392,0.01692,-0.03364,2.15821,0.49005,0.27494,-0.30020,-0.62690,-4.10354,793.24871,800.71173,0.58814,12.44260,0.62199,-0.35774,0.00000,9.14605,8.78830
38.48099,0.73247,0.32653,0.22295,-0.11034,0.09449,-0.26193,0.02580,0.00846,2.20392,0.01692,-0.03364,2.15821,0.49005,0.27494,-0.30020,-0.62690,-4.10479,793.36883,800.71173,0.58816,12.44350,0.62199,-0.35634,0.00000,9.14605,8.78970
38.48199,0.73247,0.32653,0.22295,-0.11034,0.09449,-0.26193,0.02580,0.00846,2.20392,0.01692,-0.03364,2.15821,0.49005,0.27494,-0.30020,-0.62690,-4.10479,793.36883,805.74316,0.58816,12.44439,0.62199,-0.35494,0.00000,9.14605,8.79110
38.48300,0.73247,0.32653,0.22295,-0.11193,0.09847,-0.26679,0.02580,0.00846,2.20392,0.01692,-0.03364,2.15821,0.49005,0.27494,-0.30020,-0.62690,-4.10614,793.49975,800.71173,0.58820,12.44528,0.62199,-0.35344,0.00000,9.14605,8.79260
38.48400,0.73247,0.32653,0.22295,-0.11193,0.09847,-0.26679,0.02580,0.00846,2.20392,0.01692,-0.03364,2.15821,0.49005,0.27494,-0.30020,-0.62690,-4.10614,793.49975,794.33441,0.58820,12.44616,0.62199,-0.35194,0.00000,9.14605,8.79410
38.48500,0.81591,0.35462,0.23410,-0.11152,0.09487,-0.27330,0.02877,0.00969,2.20392,0.01601,-0.03287,2.15594,0.48269,0.29015,-0.30020,-0.62199,-4.13957,796.72271,794.33441,0.59110,12.44705,0.62199,-0.35044,0.00000,9.21461,8.86417
38.48600,0.81591,0.35462,0.23410,-0.11152,0.09487,-0.27330,0.02877,0.00969,2.20392,0.01601,-0.03287,2.15594,0.48269,0.29015,-0.30020,-0.62199,-4.13957,796.72271,794.33441,0.59110,12.44793,0.62199,-0.34894,0.00000,9.21461,8.86567
38.48699,0.81591,0.35462,0.23410,-0.10472,0.09346,-0.28313,0.02877,0.00969,2.20392,0.01601,-0.03287,2.15594,0.48269,0.29015,-0.30020,-0.62199,-4.14089,796.85058,794.33441,0.59114,12.44880,0.62199,-0.34759,0.00000,9.21461,8.86702
38.48799,0.81591,0.35462,0.23410,-0.10472,0.09346,-0.28313,0.02877,0.00969,2.20392,0.01601,-0.03287,2.15594,0.48269,0.29015,-0.30020,-0.62199,-4.14089,796.85058,795.74279,0.59114,12.44967,0.61849,-0.34625,0.00000,9.21461,8.86836
38.48899,0.81591,0.35462,0.23410,-0.10206,0.09996,-0.29086,0.02877,0.00969,2.20392,0.01601,-0.03287,2.15594,0.48269,0.29015,-0.30020,-0.62199,-4.14215,796.97174,795.74279,0.59117,12.45054,0.61849,-0.34490,0.00000,9.21461,8.86971
38.49000,0.81591,0.35462,0.23410,-0.10206,0.09996,-0.29086,0.02877,0.00969,2.20392,0.01601,-0.03287,2.15594,0.48269,0.29015,-0.30020,-0.62199,-4.14215,796.97174,794.33441,0.59117,12.45141,0.61849,-0.34354,0.00000,9.21461,8.87106
38.49100,0.81591,0.35462,0.23410,-0.11007,0.10439,-0.29672,0.02877,0.00969,2.20392,0.01601,-0.03287,2.15594,0.48269,0.29015,-0.30020,-0.62199,-4.14338,797.08929,794.33441,0.59120,12.45227,0.61849,-0.34228,0.00000,9.21461,8.87233
38.49200,0.81591,0.35462,0.23410,-0.11007,0.10439,-0.29672,0.02877,0.00969,2.20392,0.01601,-0.03287,2.15594,0.48269,0.29015,-0.30020,-0.62199,-4.14338,797.08929,794.33441,0.59120,12.45314,0.61849,-0.34102,0.00000,9.21461,8.87359
38.49300,0.81591,0.35462,0.23410,-0.11761,0.10076,-0.30720,0.02877,0.00969,2.20392,0.01601,-0.03287,2.15594,0.48269,0.29015,-0.30020,-0.62199,-4.14442,797.18975,792.23114,0.59121,12.45399,0.61849,-0.34004,0.00000,9.21461,8.87456
38.49399,0.81591,0.35462,0.23410,-0.11761,0.10076,-0.30720,0.02877,0.00969,2.20392,0.01601,-0.03287,2.15594,0.48269,0.29015,-0.30020,-0.62199,-4.14442,797.18975,793.63208,0.59121,12.45485,0.61849,-0.33907,0.00000,9.21461,8.87554
38.49499,0.90156,0.36172,0.24785,-0.11578,0.09877,-0.32145,0.03386,0.01067,2.20392,0.01499,-0.03207,2.15325,0.47744,0.30930,-0.30020,-0.61849,-4.18024,800.62750,793.63208,0.59431,12.45570,0.61849,-0.33814,0.00000,9.28942,8.95127
38.49599,0.90156,0.36172,0.24785,-0.11578,0.09877,-0.32145,0.03386,0.01067,2.20392,0.01499,-0.03207,2.15325,0.47744,0.30930,-0.30020,-0.61849,-4.18024,800.62750,793.63208,0.59431,12.45655,0.61849,-0.33721,0.00000,9.28942,8.95220
38.49700,0.90156,0.36172,0.24785,-0.11292,0.10430,-0.33129,0.03386,0.01067,2.20392,0.01499,-0.03207,2.15325,0.47744,0.30930,-0.30020,-0.61849,-4.18114,800.71380,793.63208,0.59431,12.45740,0.61849,-0.33621,0.00000,9.28942,8.95320
38.49800,0.90156,0.36172,0.24785,-0.11292,0.10430,-0.33129,0.03386,0.01067,2.20392,0.01499,-0.03207,2.15325,0.47744,0.30930,-0.30020,-0.61849,-4.18114,800.71380,793.63208,0.59431,12.45824,0.61849,-0.33521,0.00000,9.28942,8.95420
38.49900,0.90156,0.36172,0.24785,-0.11625,0.10800,-0.33558,0.03386,0.01067,2.20392,0.01499,-0.03207,2.15325,0.47744,0.30930,-0.30020,-0.61849,-4.18209,800.80426,793.63208,0.59431,12.45908,0.61849,-0.33419,0.00000,9.28942,8.95522
38.50000,0.90156,0.36172,0.24785,-0.11625,0.10800,-0.33558,0.03386,0.01067,2.20392,0.01499,-0.03207,2.15325,0.47744,0.30930,-0.30020,-0.61849,-4.18209,800.80426,793.63208,0.59431,12.45992,0.61849,-0.33317,0.00000,9.28942,8.95625
38.50099,0.90156,0.36172,0.24785,-0.11817,0.10444,-0.34091,0.03386,0.01067,2.20392,0.01499,-0.03207,2.15325,0.47744,0.30930,-0.30020,-0.61849,-4.18295,800.88714,793.63208,0.59431,12.46075,0.61849,-0.33233,0.00000,9.28942,8.95708
38.50199,0.90156,0.36172,0.24785,-0.11817,0.10444,-0.34091,0.03386,0.01067,2.20392,0.01499,-0.03207,2.15325,0.47744,0.30930,-0.30020,-0.61849,-4.18295,800.88714,792.23114,0.59431,12.46158,0.61849,-0.33150,0.00000,9.28942,8.95791
38.50299,0.90156,0.36172,0.24785,-0.11370,0.10257,-0.34826,0.03386,0.01067,2.20392,0.01499,-0.03207,2.15325,0.47744,0.30930,-0.30020,-0.61849,-4.18365,800.95397,793.63208,0.59429,12.46241,0.61849,-0.33084,0.00000,9.28942,8.95857
38.50400,0.90156,0.36172,0.24785,-0.11370,0.10257,-0.34826,0.03386,0.01067,2.20392,0.01499,-0.03207,2.15325,0.47744,0.30930,-0.30020,-0.61849,-4.18365,800.95397,793.63208,0.59429,12.46323,0.61849,-0.33018,0.00000,9.28942,8.95923
38.50500,0.77206,0.32266,0.26441,-0.11221,0.10642,-0.35272,0.02933,0.00944,2.20392,0.01399,-0.03119,2.15011,0.47744,0.30930,-0.30020,-0.61849,-4.18357,800.94592,795.03796,0.59421,12.46405,0.61849,-0.32957,0.00000,9.28797,8.95839
38.50600,0.77206,0.32266,0.26441,-0.11221,0.10642,-0.35272,0.02933,0.00944,2.20392,0.01399,-0.03119,2.15011,0.47744,0.30930,-0.30020,-0.61849,-4.18357,800.94592,795.03796,0.59421,12.46486,0.61849,-0.32897,0.00000,9.28797,8.95900
38.50699,0.77206,0.32266,0.26441,-0.11899,0.10624,-0.35607,0.02933,0.00944,2.20392,0.01399,-0.03119,2.15011,0.47744,0.30930,-0.30020,-0.61849,-4.18403,800.99047,795.03796,0.59417,12.46567,0.61849,-0.32858,0.00000,9.28797,8.95939
38.50799,0.77206,0.32266,0.26441,-0.11899,0.10624,-0.35607,0.02933,0.00944,2.20392,0.01399,-0.03119,2.15011,0.47744,0.30930,-0.30020,-0.61849,-4.18403,800.99047,795.03796,0.59417,12.46648,0.61310,-0.32818,0.00000,9.28797,8.95978
38.50899,0.77206,0.32266,0.26441,-0.12436,0.09897,-0.36538,0.02933,0.00944,2.20392,0.01399,-0.03119,2.15011,0.47744,0.30930,-0.30020,-0.61849,-4.18420,801.00665,795.03796,0.59411,12.46728,0.61310,-0.32821,0.00000,9.28797,8.95975
38.50999,0.77206,0.32266,0.26441,-0.12436,0.09897,-0.36538,0.02933,0.00944,2.20392,0.01399,-0.03119,2.15011,0.47744,0.30930,-0.30020,-0.61849,-4.18420,801.00665,795.03796,0.59411,12.46807,0.61310,-0.32825,0.00000,9.28797,8.95972
38.51100,0.77206,0.32266,0.26441,-0.12299,0.09599,-0.37913,0.02933,0.00944,2.20392,0.01399,-0.03119,2.15011,0.47744,0.30930,-0.30020,-0.61849,-4.18404,800.99139,795.74279,0.59402,12.46886,0.61310,-0.32856,0.00000,9.28797,8.95941
38.51200,0.77206,0.32266,0.26441,-0.12299,0.09599,-0.37913,0.02933,0.00944,2.20392,0.01399,-0.03119,2.15011,0.47744,0.30930,-0.30020,-0.61849,-4.18404,800.99139,795.74279,0.59402,12.46965,0.61310,-0.32887,0.00000,9.28797,8.95910
38.51300,0.77206,0.32266,0.26441,-0.12377,0.10110,-0.38872,0.02933,0.00944,2.20392,0.01399,-0.03119,2.15011,0.47744,0.30930,-0.30020,-0.61849,-4.18374,800.96282,805.74316,0.59392,12.47043,0.61310,-0.32920,0.00000,9.28797,8.95877
38.51399,0.77206,0.32266,0.26441,-0.12377,0.10110,-0.38872,0.02933,0.00944,2.20392,0.01399,-0.03119,2.15011,0.47744,0.30930,-0.30020,-0.61849,-4.18374,800.96282,805.74316,0.59392,12.47120,0.61310,-0.32952,0.00000,9.28797,8.95844
38.51499,0.78979,0.30313,0.28245,-0.12966,0.10281,-0.39347,0.02878,0.00830,2.20392,0.01295,-0.03031,2.14662,0.46934,0.31847,-0.30020,-0.61310,-4.20755,803.23822,802.14288,0.59595,12.47197,0.61310,-0.32983,0.00000,9.33958,9.00974
38.51599,0.78979,0.30313,0.28245,-0.12966,0.10281,-0.39347,0.02878,0.00830,2.20392,0.01295,-0.03031,2.14662,0.46934,0.31847,-0.30020,-0.61310,-4.20755,803.23822,802.14288,0.59595,12.47274,0.61310,-0.33013,0.00000,9.33958,9.00944
38.51699,0.78979,0.30313,0.28245,-0.12959,0.09656,-0.39992,0.02878,0.00830,2.20392,0.01295,-0.03031,2.14662,0.46934,0.31847,-0.30020,-0.61310,-4.20713,803.19830,802.14288,0.59584,12.47350,0.61310,-0.33072,0.00000,9.33958,9.00885
38.51800,0.78979,0.30313,0.28245,-0.12959,0.09656,-0.39992,0.02878,0.00830,2.20392,0.01295,-0.03031,2.14662,0.46934,0.31847,-0.30020,-0.61310,-4.20713,803.19830,802.14288,0.59584,12.47425,0.61310,-0.33131,0.00000,9.33958,9.00826
38.51900,0.78979,0.30313,0.28245,-0.12060,0.09282,-0.40796,0.02878,0.00830,2.20392,0.01295,-0.03031,2.14662,0.46934,0.31847,-0.30020,-0.61310,-4.20647,803.13543,829.57287,0.59571,12.47500,0.61310,-0.33213,0.00000,9.33958,9.00744
38.52000,0.78979,0.30313,0.28245,-0.12060,0.09282,-0.40796,0.02878,0.00830,2.20392,0.01295,-0.03031,2.14662,0.46934,0.31847,-0.30020,-0.61310,-4.20647,803.13543,802.14288,0.59571,12.47575,0.61310,-0.33295,0.00000,9.33958,9.00662
38.52099,0.78979,0.30313,0.28245,-0.11595,0.09576,-0.41206,0.02878,0.00830,2.20392,0.01295,-0.03031,2.14662,0.46934,0.31847,-0.30020,-0.61310,-4.20566,803.05792,802.14288,0.59557,12.47649,0.61310,-0.33387,0.00000,9.33958,9.00570
38.52199,0.78979,0.30313,0.28245,-0.11595,0.09576,-0.41206,0.02878,0.00830,2.20392,0.01295,-0.03031,2.14662,0.46934,0.31847,-0.30020,-0.61310,-4.20566,803.05792,802.14288,0.59557,12.47723,0.61310,-0.33479,0.00000,9.33958,9.00478
38.52299,0.78979,0.30313,0.28245,-0.12147,0.09603,-0.41426,0.02878,0.00830,2.20392,0.01295,-0.03031,2.14662,0.46934,0.31847,-0.30020,-0.61310,-4.20466,802.96295,799.28570,0.59541,12.47797,0.61310,-0.33600,0.00000,9.33958,9.00357
38.52399,0.78979,0.30313,0.28245,-0.12147,0.09603,-0.41426,0.02878,0.00830,2.20392,0.01295,-0.03031,2.14662,0.46934,0.31847,-0.30020,-0.61310,-4.20466,802.96295,797.86480,0.59541,12.47869,0.61310,-0.33721,0.00000,9.33958,9.00236
38.52500,0.78016,0.31068,0.30212,-0.12581,0.09133,-0.42152,0.02724,0.00828,2.20392,0.01178,-0.02951,2.14274,0.46934,0.31847,-0.30020,-0.61310,-4.20313,802.81622,797.86480,0.59520,12.47942,0.61310,-0.33888,0.00000,9.33917,9.00028
38.52600,0.78016,0.31068,0.30212,-0.12581,0.09133,-0.42152,0.02724,0.00828,2.20392,0.01178,-0.02951,2.14274,0.46934,0.31847,-0.30020,-0.61310,-4.20313,802.81622,799.28570,0.59520,12.48014,0.61310,-0.34056,0.00000,9.33917,8.99860
38.52700,0.78016,0.31068,0.30212,-0.12272,0.09130,-0.43217,0.02724,0.00828,2.20392,0.01178,-0.02951,2.14274,0.46934,0.31847,-0.30020,-0.61310,-4.20145,802.65551,797.86480,0.59499,12.48085,0.61310,-0.34249,0.00000,9.33917,8.99668
38.52799,0.78016,0.31068,0.30212,-0.12272,0.09130,-0.43217,0.02724,0.00828,2.20392,0.01178,-0.02951,2.14274,0.46934,0.31847,-0.30020,-0.61310,-4.20145,802.65551,806.46710,0.59499,12.48156,0.60759,-0.34442,0.00000,9.33917,8.99475
38.52899,0.78016,0.31068,0.30212,-0.12069,0.09686,-0.43895,0.02724,0.00828,2.20392,0.01178,-0.02951,2.14274,0.46934,0.31847,-0.30020,-0.61310,-4.19965,802.48437,808.64678,0.59476,12.48226,0.60759,-0.34633,0.00000,9.33917,8.99284
38.52999,0.78016,0.31068,0.30212,-0.12069,0.09686,-0.43895,0.02724,0.00828,2.20392,0.01178,-0.02951,2.14274,0.46934,0.31847,-0.30020,-0.61310,-4.19965,802.48437,806.46710,0.59476,12.48296,0.60759,-0.34824,0.00000,9.33917,8.99093
38.53099,0.78016,0.31068,0.30212,-0.12294,0.09740,-0.44233,0.02724,0.00828,2.20392,0.01178,-0.02951,2.14274,0.46934,0.31847,-0.30020,-0.61310,-4.19783,802.30981,806.46710,0.59453,12.48366,0.60759,-0.35024,0.00000,9.33917,8.98893
38.53200,0.78016,0.31068,0.30212,-0.12294,0.09740,-0.44233,0.02724,0.00828,2.20392,0.01178,-0.02951,2.14274,0.46934,0.31847,-0.30020,-0.61310,-4.19783,802.30981,806.46710,0.59453,12.48435,0.60759,-0.35224,0.00000,9.33917,8.98693
38.53300,0.78016,0.31068,0.30212,-0.12060,0.09223,-0.44733,0.02724,0.00828,2.20392,0.01178,-0.02951,2.14274,0.46934,0.31847,-0.30020,-0.61310,-4.19584,802.11968,800.71173,0.59429,12.48504,0.60759,-0.35450,0.00000,9.33917,8.98467
38.53400,0.78016,0.31068,0.30212,-0.12060,0.09223,-0.44733,0.02724,0.00828,2.20392,0.01178,-0.02951,2.14274,0.46934,0.31847,-0.30020,-0.61310,-4.19584,802.11968,806.46710,0.59429,12.48572,0.60759,-0.35676,0.00000,9.33917,8.98241
38.53499,0.87925,0.34470,0.32305,-0.11271,0.09213,-0.45154,0.03113,0.01003,2.20392,0.01067,-0.02878,2.13855,0.46109,0.32699,-0.30020,-0.60759,-4.21780,804.21655,806.46710,0.59616,12.48640,0.60759,-0.35898,0.00000,9.39069,9.03170
38.53599,0.87925,0.34470,0.32305,-0.11271,0.09213,-0.45154,0.03113,0.01003,2.20392,0.01067,-0.02878,2.13855,0.46109,0.32699,-0.30020,-0.60759,-4.21780,804.21655,800.71173,0.59616,12.48707,0.60759,-0.36121,0.00000,9.39069,9.02948
38.53699,0.87925,0.34470,0.32305,-0.11002,0.09728,-0.44993,0.03113,0.01003,2.20392,0.01067,-0.02878,2.13855,0.46109,0.32699,-0.30020,-0.60759,-4.21578,804.02398,800.71173,0.59592,12.48773,0.60759,-0.36331,0.00000,9.39069,9.02738
38.53799,0.87925,0.34470,0.32305,-0.11002,0.09728,-0.44993,0.03113,0.01003,2.20392,0.01067,-0.02878,2.13855,0.46109,0.32699,-0.30020,-0.60759,-4.21578,804.02398,803.57916,0.59592,12.48839,0.60179,-0.36541,0.00000,9.39069,9.02528
38.53900,0.87925,0.34470,0.32305,-0.11377,0.09694,-0.44642,0.03113,0.01003,2.20392,0.01067,-0.02878,2.13855,0.46109,0.32699,-0.30020,-0.60759,-4.21379,803.83422,800.71173,0.59568,12.48905,0.60179,-0.36757,0.00000,9.39069,9.02312
38.54000,0.87925,0.34470,0.32305,-0.11377,0.09694,-0.44642,0.03113,0.01003,2.20392,0.01067,-0.02878,2.13855,0.46109,0.32699,-0.30020,-0.60759,-4.21379,803.83422,800.71173,0.59568,12.48970,0.60179,-0.36973,0.00000,9.39069,9.02096
38.54100,0.87925,0.34470,0.32305,-0.11311,0.09208,-0.44740,0.03113,0.01003,2.20392,0.01067,-0.02878,2.13855,0.46109,0.32699,-0.30020,-0.60759,-4.21166,803.63024,800.71173,0.59543,12.49034,0.60179,-0.37215,0.00000,9.39069,9.01854
38.54199,0.87925,0.34470,0.32305,-0.11311,0.09208,-0.44740,0.03113,0.01003,2.20392,0.01067,-0.02878,2.13855,0.46109,0.32699,-0.30020,-0.60759,-4.21166,803.63024,799.28570,0.59543,12.49098,0.60179,-0.37456,0.00000,9.39069,9.01612
38.54299,0.87925,0.34470,0.32305,-0.10722,0.09449,-0.44950,0.03113,0.01003,2.20392,0.01067,-0.02878,2.13855,0.46109,0.32699,-0.30020,-0.60759,-4.20939,803.41363,803.57916,0.59517,12.49161,0.60179,-0.37701,0.00000,9.39069,9.01368
38.54399,0.87925,0.34470,0.32305,-0.10722,0.09449,-0.44950,0.03113,0.01003,2.20392,0.01067,-0.02878,2.13855,0.46109,0.32699,-0.30020,-0.60759,-4.20939,803.41363,803.57916,0.59517,12.49223,0.60179,-0.37945,0.00000,9.39069,9.01123
38.54499,0.99656,0.34657,0.34570,-0.10681,0.10355,-0.44600,0.03833,0.01104,2.20392,0.00961,-0.02801,2.13409,0.45239,0.34421,-0.30020,-0.60179,-4.24478,806.78399,803.57916,0.59823,12.49285,0.60179,-0.38151,0.00000,9.47098,9.08946
38.54600,0.99656,0.34657,0.34570,-0.10681,0.10355,-0.44600,0.03833,0.01104,2.20392,0.00961,-0.02801,2.13409,0.45239,0.34421,-0.30020,-0.60179,-4.24478,806.78399,803.57916,0.59823,12.49347,0.60179,-0.38357,0.00000,9.47098,9.08741
38.54700,0.99656,0.34657,0.34570,-0.11168,0.10771,-0.43968,0.03833,0.01104,2.20392,0.00961,-0.02801,2.13409,0.45239,0.34421,-0.30020,-0.60179,-4.24290,806.60595,803.57916,0.59800,12.49407,0.60179,-0.38552,0.00000,9.47098,9.08545
38.54800,0.99656,0.34657,0.34570,-0.11168,0.10771,-0.43968,0.03833,0.01104,2.20392,0.00961,-0.02801,2.13409,0.45239,0.34421,-0.30020,-0.60179,-4.24290,806.60595,807.19238,0.59800,12.49468,0.60179,-0.38748,0.00000,9.47098,9.08350
38.54899,0.99656,0.34657,0.34570,-0.11042,0.10707,-0.43675,0.03833,0.01104,2.20392,0.00961,-0.02801,2.13409,0.45239,0.34421,-0.30020,-0.60179,-4.24107,806.43139,800.71173,0.59778,12.49527,0.60179,-0.38946,0.00000,9.47098,9.08152
38.54999,0.99656,0.34657,0.34570,-0.11042,0.10707,-0.43675,0.03833,0.01104,2.20392,0.00961,-0.02801,2.13409,0.45239,0.34421,-0.30020,-0.60179,-4.24107,806.43139,800.71173,0.59778,12.49586,0.60179,-0.39143,0.00000,9.47098,9.07954
38.55099,0.99656,0.34657,0.34570,-0.10328,0.11116,-0.43467,0.03833,0.01104,2.20392,0.00961,-0.02801,2.13409,0.45239,0.34421,-0.30020,-0.60179,-4.23931,806.26458,807.19238,0.59757,12.49644,0.60179,-0.39321,0.00000,9.47098,9.07776
38.55199,0.99656,0.34657,0.34570,-0.10328,0.11116,-0.43467,0.03833,0.01104,2.20392,0.00961,-0.02801,2.13409,0.45239,0.34421,-0.30020,-0.60179,-4.23931,806.26458,800.71173,0.59757,12.49701,0.60179,-0.39499,0.00000,9.47098,9.07598
38.55300,0.99656,0.34657,0.34570,-0.10178,0.11795,-0.42831,0.03833,0.01104,2.20392,0.00961,-0.02801,2.13409,0.45239,0.34421,-0.30020,-0.60179,-4.23781,806.12207,800.71173,0.59739,12.49758,0.60179,-0.39642,0.00000,9.47098,9.07456
38.55400,0.99656,0.34657,0.34570,-0.10178,0.11795,-0.42831,0.03833,0.01104,2.20392,0.00961,-0.02801,2.13409,0.45239,0.34421,-0.30020,-0.60179,-4.23781,806.12207,800.71173,0.59739,12.49814,0.60179,-0.39785,0.00000,9.47098,9.07313
38.55500,0.83816,0.30825,0.36831,-0.10604,0.11822,-0.42094,0.03339,0.00996,2.20392,0.00862,-0.02716,2.12970,0.45239,0.34421,-0.30020,-0.60179,-4.23570,805.92077,807.19238,0.59715,12.49869,0.60179,-0.39917,0.00000,9.46919,9.07002
38.55599,0.83816,0.30825,0.36831,-0.10604,0.11822,-0.42094,0.03339,0.00996,2.20392,0.00862,-0.02716,2.12970,0.45239,0.34421,-0.30020,-0.60179,-4.23570,805.92077,799.99810,0.59715,12.49924,0.60179,-0.40048,0.00000,9.46919,9.06871
38.55699,0.83816,0.30825,0.36831,-0.10585,0.11562,-0.41722,0.03339,0.00996,2.20392,0.00862,-0.02716,2.12970,0.45239,0.34421,-0.30020,-0.60179,-4.23447,805.80395,807.19238,0.59699,12.49977,0.60179,-0.40180,0.00000,9.46919,9.06739
38.55799,0.83816,0.30825,0.36831,-0.10585,0.11562,-0.41722,0.03339,0.00996,2.20392,0.00862,-0.02716,2.12970,0.45239,0.34421,-0.30020,-0.60179,-4.23447,805.80395,807.19238,0.59699,12.50030,0.59579,-0.40311,0.00000,9.46919,9.06608
38.55899,0.83816,0.30825,0.36831,-0.10180,0.12012,-0.41341,0.03339,0.00996,2.20392,0.00862,-0.02716,2.12970,0.45239,0.34421,-0.30020,-0.60179,-4.23339,805.70098,813.04156,0.59685,12.50082,0.59579,-0.40411,0.00000,9.46919,9.06508
38.56000,0.83816,0.30825,0.36831,-0.10180,0.12012,-0.41341,0.03339,0.00996,2.20392,0.00862,-0.02716,2.12970,0.45239,0.34421,-0.30020,-0.60179,-4.23339,805.70098,813.04156,0.59685,12.50133,0.59579,-0.40512,0.00000,9.46919,9.06407
38.56100,0.83816,0.30825,0.36831,-0.10205,0.12750,-0.40535,0.03339,0.00996,2.20392,0.00862,-0.02716,2.12970,0.45239,0.34421,-0.30020,-0.60179,-4.23268,805.63330,813.04156,0.59673,12.50184,0.59579,-0.40563,0.00000,9.46919,9.06355
38.56200,0.83816,0.30825,0.36831,-0.10205,0.12750,-0.40535,0.03339,0.00996,2.20392,0.00862,-0.02716,2.12970,0.45239,0.34421,-0.30020,-0.60179,-4.23268,805.63330,799.99810,0.59673,12.50233,0.59579,-0.40615,0.00000,9.46919,9.06304
38.56299,0.83816,0.30825,0.36831,-0.10309,0.12772,-0.39741,0.03339,0.00996,2.20392,0.00862,-0.02716,2.12970,0.45239,0.34421,-0.30020,-0.60179,-4.23232,805.59899,800.71173,0.59666,12.50282,0.59579,-0.40641,0.00000,9.46919,9.06278
38.56399,0.83816,0.30825,0.36831,-0.10309,0.12772,-0.39741,0.03339,0.00996,2.20392,0.00862,-0.02716,2.12970,0.45239,0.34421,-0.30020,-0.60179,-4.23232,805.59899,809.37591,0.59666,12.50330,0.59579,-0.40666,0.00000,9.46919,9.06253
38.56499,0.90573,0.32940,0.38916,-0.09633,0.12550,-0.39333,0.03567,0.01112,2.20392,0.00766,-0.02614,2.12556,0.44339,0.35907,-0.30020,-0.59579,-4.26608,808.80615,807.19238,0.59957,12.50377,0.59579,-0.40658,0.00000,9.54167,9.13508
38.56600,0.90573,0.32940,0.38916,-0.09633,0.12550,-0.39333,0.03567,0.01112,2.20392,0.00766,-0.02614,2.12556,0.44339,0.35907,-0.30020,-0.59579,-4.26608,808.80615,807.19238,0.59957,12.50424,0.59579,-0.40650,0.00000,9.54167,9.13517
38.56700,0.90573,0.32940,0.38916,-0.08764,0.13079,-0.38803,0.03567,0.01112,2.20392,0.00766,-0.02614,2.12556,0.44339,0.35907,-0.30020,-0.59579,-4.26639,808.83557,809.37591,0.59955,12.50470,0.59579,-0.40592,0.00000,9.54167,9.13575
38.56800,0.90573,0.32940,0.38916,-0.08764,0.13079,-0.38803,0.03567,0.01112,2.20392,0.00766,-0.02614,2.12556,0.44339,0.35907,-0.30020,-0.59579,-4.26639,808.83557,807.19238,0.59955,12.50515,0.59159,-0.40533,0.00000,9.54167,9.13633
38.56900,0.90573,0.32940,0.38916,-0.08773,0.13821,-0.37774,0.03567,0.01112,2.20392,0.00766,-0.02614,2.12556,0.44339,0.35907,-0.30020,-0.59579,-4.26722,808.91418,807.19238,0.59958,12.50560,0.59159,-0.40414,0.00000,9.54167,9.13753
38.56999,0.90573,0.32940,0.38916,-0.08773,0.13821,-0.37774,0.03567,0.01112,2.20392,0.00766,-0.02614,2.12556,0.44339,0.35907,-0.30020,-0.59579,-4.26722,808.91418,807.19238,0.59958,12.50603,0.59159,-0.40295,0.00000,9.54167,9.13872
38.57099,0.90573,0.32940,0.38916,-0.09073,0.13770,-0.36768,0.03567,0.01112,2.20392,0.00766,-0.02614,2.12556,0.44339,0.35907,-0.30020,-0.59579,-4.26849,809.03399,807.19238,0.59965,12.50647,0.59159,-0.40143,0.00000,9.54167,9.14023
38.57199,0.90573,0.32940,0.38916,-0.09073,0.13770,-0.36768,0.03567,0.01112,2.20392,0.00766,-0.02614,2.12556,0.44339,0.35907,-0.30020,-0.59579,-4.26849,809.03399,809.37591,0.59965,12.50689,0.59159,-0.39992,0.00000,9.54167,9.14174
38.57300,0.90573,0.32940,0.38916,-0.08464,0.13485,-0.36139,0.03567,0.01112,2.20392,0.00766,-0.02614,2.12556,0.44339,0.35907,-0.30020,-0.59579,-4.27000,809.17749,809.37591,0.59974,12.50731,0.59159,-0.39819,0.00000,9.54167,9.14348
38.57400,0.90573,0.32940,0.38916,-0.08464,0.13485,-0.36139,0.03567,0.01112,2.20392,0.00766,-0.02614,2.12556,0.44339,0.35907,-0.30020,-0.59579,-4.27000,809.17749,810.83819,0.59974,12.50772,0.59159,-0.39646,0.00000,9.54167,9.14521
38.57500,0.93266,0.27998,0.40898,-0.07352,0.13919,-0.35373,0.03747,0.00931,2.20392,0.00680,-0.02499,2.12172,0.43709,0.36705,-0.30020,-0.59159,-4.29213,811.27124,810.83819,0.60163,12.50812,0.59159,-0.39415,0.00000,9.58501,9.19085
38.57600,0.93266,0.27998,0.40898,-0.07352,0.13919,-0.35373,0.03747,0.00931,2.20392,0.00680,-0.02499,2.12172,0.43709,0.36705,-0.30020,-0.59159,-4.29213,811.27124,810.83819,0.60163,12.50852,0.59159,-0.39185,0.00000,9.58501,9.19316
38.57699,0.93266,0.27998,0.40898,-0.06778,0.14511,-0.34193,0.03747,0.00931,2.20392,0.00680,-0.02499,2.12172,0.43709,0.36705,-0.30020,-0.59159,-4.29452,811.49743,810.83819,0.60180,12.50891,0.59159,-0.38903,0.00000,9.58501,9.19598
38.57799,0.93266,0.27998,0.40898,-0.06778,0.14511,-0.34193,0.03747,0.00931,2.20392,0.00680,-0.02499,2.12172,0.43709,0.36705,-0.30020,-0.59159,-4.29452,811.49743,802.14288,0.60180,12.50930,0.58520,-0.38621,0.00000,9.58501,9.19880
38.57899,0.93266,0.27998,0.40898,-0.06425,0.14464,-0.33194,0.03747,0.00931,2.20392,0.00680,-0.02499,2.12172,0.43709,0.36705,-0.30020,-0.59159,-4.29727,811.75726,802.14288,0.60201,12.50968,0.58520,-0.38314,0.00000,9.58501,9.20187
38.58000,0.93266,0.27998,0.40898,-0.06425,0.14464,-0.33194,0.03747,0.00931,2.20392,0.00680,-0.02499,2.12172,0.43709,0.36705,-0.30020,-0.59159,-4.29727,811.75726,802.14288,0.60201,12.51005,0.58520,-0.38007,0.00000,9.58501,9.20493
38.58100,0.93266,0.27998,0.40898,-0.05610,0.14473,-0.32648,0.03747,0.00931,2.20392,0.00680,-0.02499,2.12172,0.43709,0.36705,-0.30020,-0.59159,-4.30023,812.03637,802.14288,0.60223,12.51041,0.58520,-0.37681,0.00000,9.58501,9.20820
38.58200,0.93266,0.27998,0.40898,-0.05610,0.14473,-0.32648,0.03747,0.00931,2.20392,0.00680,-0.02499,2.12172,0.43709,0.36705,-0.30020,-0.59159,-4.30023,812.03637,802.14288,0.60223,12.51077,0.58520,-0.37355,0.00000,9.58501,9.21146
38.58300,0.93266,0.27998,0.40898,-0.04945,0.15242,-0.31965,0.03747,0.00931,2.20392,0.00680,-0.02499,2.12172,0.43709,0.36705,-0.30020,-0.59159,-4.30346,812.34197,801.42669,0.60248,12.51112,0.58520,-0.36988,0.00000,9.58501,9.21513
38.58399,0.93266,0.27998,0.40898,-0.04945,0.15242,-0.31965,0.03747,0.00931,2.20392,0.00680,-0.02499,2.12172,0.43709,0.36705,-0.30020,-0.59159,-4.30346,812.34197,801.42669,0.60248,12.51147,0.58520,-0.36621,0.00000,9.58501,9.21880
38.58499,1.02515,0.29424,0.42622,-0.05080,0.15910,-0.30885,0.04313,0.00977,2.20392,0.00612,-0.02371,2.11829,0.42750,0.38127,-0.30020,-0.58520,-4.34156,815.92987,801.42669,0.60575,12.51181,0.58520,-0.36205,0.00000,9.65876,9.29671
38.58599,1.02515,0.29424,0.42622,-0.05080,0.15910,-0.30885,0.04313,0.00977,2.20392,0.00612,-0.02371,2.11829,0.42750,0.38127,-0.30020,-0.58520,-4.34156,815.92987,801.42669,0.60575,12.51214,0.58520,-0.35788,0.00000,9.65876,9.30087
38.58700,1.02515,0.29424,0.42622,-0.05174,0.15729,-0.29940,0.04313,0.00977,2.20392,0.00612,-0.02371,2.11829,0.42750,0.38127,-0.30020,-0.58520,-4.34547,816.29656,801.42669,0.60606,12.51247,0.58520,-0.35369,0.00000,9.65876,9.30507
38.58800,1.02515,0.29424,0.42622,-0.05174,0.15729,-0.29940,0.04313,0.00977,2.20392,0.00612,-0.02371,2.11829,0.42750,0.38127,-0.30020,-0.58520,-4.34547,816.29656,801.42669,0.60606,12.51279,0.58520,-0.34949,0.00000,9.65876,9.30927
38.58900,1.02515,0.29424,0.42622,-0.04417,0.15592,-0.29275,0.04313,0.00977,2.20392,0.00612,-0.02371,2.11829,0.42750,0.38127,-0.30020,-0.58520,-4.34938,816.66400,801.42669,0.60636,12.51310,0.58520,-0.34531,0.00000,9.65876,9.31345
38.59000,1.02515,0.29424,0.42622,-0.04417,0.15592,-0.29275,0.04313,0.00977,2.20392,0.00612,-0.02371,2.11829,0.42750,0.38127,-0.30020,-0.58520,-4.34938,816.66400,801.42669,0.60636,12.51341,0.58520,-0.34113,0.00000,9.65876,9.31763
38.59099,1.02515,0.29424,0.42622,-0.03599,0.16248,-0.28307,0.04313,0.00977,2.20392,0.00612,-0.02371,2.11829,0.42750,0.38127,-0.30020,-0.58520,-4.35334,817.03631,801.42669,0.60668,12.51371,0.58520,-0.33682,0.00000,9.65876,9.32194
38.59199,1.02515,0.29424,0.42622,-0.03599,0.16248,-0.28307,0.04313,0.00977,2.20392,0.00612,-0.02371,2.11829,0.42750,0.38127,-0.30020,-0.58520,-4.35334,817.03631,802.14288,0.60668,12.51400,0.58520,-0.33250,0.00000,9.65876,9.32625
38.59299,1.02515,0.29424,0.42622,-0.03496,0.16852,-0.26956,0.04313,0.00977,2.20392,0.00612,-0.02371,2.11829,0.42750,0.38127,-0.30020,-0.58520,-4.35737,817.41424,802.14288,0.60700,12.51428,0.58520,-0.32819,0.00000,9.65876,9.33057
38.59400,1.02515,0.29424,0.42622,-0.03496,0.16852,-0.26956,0.04313,0.00977,2.20392,0.00612,-0.02371,2.11829,0.42750,0.38127,-0.30020,-0.58520,-4.35737,817.41424,802.14288,0.60700,12.51456,0.58520,-0.32388,0.00000,9.65876,9.33488
38.59500,0.87389,0.28171,0.44137,-0.03411,0.16781,-0.25859,0.03794,0.00951,2.20392,0.00569,-0.02228,2.11531,0.42750,0.38127,-0.30020,-0.58520,-4.36031,817.69012,802.14288,0.60723,12.51483,0.58520,-0.31983,0.00000,9.65671,9.33687
38.59600,0.87389,0.28171,0.44137,-0.03411,0.16781,-0.25859,0.03794,0.00951,2.20392,0.00569,-0.02228,2.11531,0.42750,0.38127,-0.30020,-0.58520,-4.36031,817.69012,802.14288,0.60723,12.51509,0.58520,-0.31579,0.00000,9.65671,9.34091
38.59700,0.87389,0.28171,0.44137,-0.02799,0.16870,-0.25095,0.03794,0.00951,2.20392,0.00569,-0.02228,2.11531,0.42750,0.38127,-0.30020,-0.58520,-4.36397,818.03265,802.14288,0.60752,12.51534,0.58520,-0.31201,0.00000,9.65671,9.34469
38.59799,0.87389,0.28171,0.44137,-0.02799,0.16870,-0.25095,0.03794,0.00951,2.20392,0.00569,-0.02228,2.11531,0.42750,0.38127,-0.30020,-0.58520,-4.36397,818.03265,802.14288,0.60752,12.51558,0.57870,-0.30823,0.00000,9.65671,9.34847
38.59899,0.87389,0.28171,0.44137,-0.02480,0.17531,-0.24085,0.03794,0.00951,2.20392,0.00569,-0.02228,2.11531,0.42750,0.38127,-0.30020,-0.58520,-4.36743,818.35699,811.57135,0.60779,12.51582,0.57870,-0.30460,0.00000,9.65671,9.35210
38.59999,0.87389,0.28171,0.44137,-0.02480,0.17531,-0.24085,0.03794,0.00951,2.20392,0.00569,-0.02228,2.11531,0.42750,0.38127,-0.30020,-0.58520,-4.36743,818.35699,814.51715,0.60779,12.51605,0.57870,-0.30097,0.00000,9.65671,9.35573
38.60100,0.87389,0.28171,0.44137,-0.02879,0.17760,-0.22866,0.03794,0.00951,2.20392,0.00569,-0.02228,2.11531,0.42750,0.38127,-0.30020,-0.58520,-4.37067,818.66076,814.51715,0.60805,12.51627,0.57870,-0.29765,0.00000,9.65671,9.35905
38.60200,0.87389,0.28171,0.44137,-0.02879,0.17760,-0.22866,0.03794,0.00951,2.20392,0.00569,-0.02228,2.11531,0.42750,0.38127,-0.30020,-0.58520,-4.37067,818.66076,806.46710,0.60805,12.51648,0.57870,-0.29434,0.00000,9.65671,9.36236
38.60300,0.87389,0.28171,0.44137,-0.02982,0.17189,-0.22097,0.03794,0.00951,2.20392,0.00569,-0.02228,2.11531,0.42750,0.38127,-0.30020,-0.58520,-4.37351,818.92651,814.51715,0.60828,12.51669,0.57870,-0.29158,0.00000,9.65671,9.36512
38.60400,0.87389,0.28171,0.44137,-0.02982,0.17189,-0.22097,0.03794,0.00951,2.20392,0.00569,-0.02228,2.11531,0.42750,0.38127,-0.30020,-0.58520,-4.37351,818.92651,806.46710,0.60828,12.51689,0.57870,-0.28881,0.00000,9.65671,9.36789
38.60499,1.05302,0.40401,0.45344,-0.02309,0.16936,-0.21737,0.04591,0.01625,2.20392,0.00543,-0.02072,2.11278,0.41774,0.38834,-0.30020,-0.57870,-4.40141,821.53472,803.57916,0.61066,12.51708,0.57870,-0.28643,0.00000,9.71131,9.42487
38.60599,1.05302,0.40401,0.45344,-0.02309,0.16936,-0.21737,0.04591,0.01625,2.20392,0.00543,-0.02072,2.11278,0.41774,0.38834,-0.30020,-0.57870,-4.40141,821.53472,803.57916,0.61066,12.51726,0.57870,-0.28404,0.00000,9.71131,9.42726
38.60699,1.05302,0.40401,0.45344,-0.01866,0.17444,-0.21119,0.04591,0.01625,2.20392,0.00543,-0.02072,2.11278,0.41774,0.38834,-0.30020,-0.57870,-4.40349,821.72814,803.57916,0.61082,12.51744,0.57870,-0.28199,0.00000,9.71131,9.42931
38.60800,1.05302,0.40401,0.45344,-0.01866,0.17444,-0.21119,0.04591,0.01625,2.20392,0.00543,-0.02072,2.11278,0.41774,0.38834,-0.30020,-0.57870,-4.40349,821.72814,803.57916,0.61082,12.51761,0.57870,-0.27994,0.00000,9.71131,9.43136
38.60900,1.05302,0.40401,0.45344,-0.02090,0.17722,-0.20290,0.04591,0.01625,2.20392,0.00543,-0.02072,2.11278,0.41774,0.38834,-0.30020,-0.57870,-4.40519,821.88745,806.46710,0.61095,12.51777,0.57870,-0.27833,0.00000,9.71131,9.43297
38.61000,1.05302,0.40401,0.45344,-0.02090,0.17722,-0.20290,0.04591,0.01625,2.20392,0.00543,-0.02072,2.11278,0.41774,0.38834,-0.30020,-0.57870,-4.40519,821.88745,803.57916,0.61095,12.51793,0.57870,-0.27673,0.00000,9.71131,9.43457
38.61100,1.05302,0.40401,0.45344,-0.02040,0.17436,-0.19866,0.04591,0.01625,2.20392,0.00543,-0.02072,2.11278,0.41774,0.38834,-0.30020,-0.57870,-4.40641,822.00067,803.57916,0.61104,12.51807,0.57870,-0.27573,0.00000,9.71131,9.43557
38.61199,1.05302,0.40401,0.45344,-0.02040,0.17436,-0.19866,0.04591,0.01625,2.20392,0.00543,-0.02072,2.11278,0.41774,0.38834,-0.30020,-0.57870,-4.40641,822.00067,803.57916,0.61104,12.51821,0.57870,-0.27474,0.00000,9.71131,9.43657
38.61299,1.05302,0.40401,0.45344,-0.01466,0.17442,-0.19731,0.04591,0.01625,2.20392,0.00543,-0.02072,2.11278,0.41774,0.38834,-0.30020,-0.57870,-4.40712,822.06756,807.91894,0.61109,12.51835,0.57870,-0.27420,0.00000,9.71131,9.43710
38.61399,1.05302,0.40401,0.45344,-0.01466,0.17442,-0.19731,0.04591,0.01625,2.20392,0.00543,-0.02072,2.11278,0.41774,0.38834,-0.30020,-0.57870,-4.40712,822.06756,807.91894,0.61109,12.51848,0.57870,-0.27366,0.00000,9.71131,9.43764
38.61500,0.89424,0.28278,0.46453,-0.01343,0.17760,-0.19280,0.04061,0.01337,2.20392,0.00519,-0.01903,2.11070,0.41774,0.38834,-0.30020,-0.57870,-4.40625,821.98596,808.64678,0.61100,12.51860,0.57870,-0.27343,0.00000,9.70867,9.43523
38.61600,0.89424,0.28278,0.46453,-0.01343,0.17760,-0.19280,0.04061,0.01337,2.20392,0.00519,-0.01903,2.11070,0.41774,0.38834,-0.30020,-0.57870,-4.40625,821.98596,812.30578,0.61100,12.51871,0.57870,-0.27320,0.00000,9.70867,9.43546
38.61700,0.89424,0.28278,0.46453,-0.01749,0.17410,-0.18628,0.04061,0.01337,2.20392,0.00519,-0.01903,2.11070,0.41774,0.38834,-0.30020,-0.57870,-4.40625,821.98565,814.51715,0.61099,12.51882,0.57870,-0.27344,0.00000,9.70867,9.43522
38.61800,0.89424,0.28278,0.46453,-0.01749,0.17410,-0.18628,0.04061,0.01337,2.20392,0.00519,-0.01903,2.11070,0.41774,0.38834,-0.30020,-0.57870,-4.40625,821.98565,819.72406,0.61099,12.51892,0.57199,-0.27368,0.00000,9.70867,9.43498
38.61899,0.89424,0.28278,0.46453,-0.01591,0.16559,-0.18246,0.04061,0.01337,2.20392,0.00519,-0.01903,2.11070,0.41774,0.38834,-0.30020,-0.57870,-4.40575,821.93975,819.72406,0.61094,12.51901,0.57199,-0.27449,0.00000,9.70867,9.43417
38.61999,0.89424,0.28278,0.46453,-0.01591,0.16559,-0.18246,0.04061,0.01337,2.20392,0.00519,-0.01903,2.11070,0.41774,0.38834,-0.30020,-0.57870,-4.40575,821.93975,819.72406,0.61094,12.51910,0.57199,-0.27531,0.00000,9.70867,9.43335
38.62099,0.89424,0.28278,0.46453,-0.00800,0.16397,-0.17889,0.04061,0.01337,2.20392,0.00519,-0.01903,2.11070,0.41774,0.38834,-0.30020,-0.57870,-4.40486,821.85656,825.75701,0.61085,12.51918,0.57199,-0.27640,0.00000,9.70867,9.43226
38.62200,0.89424,0.28278,0.46453,-0.00800,0.16397,-0.17889,0.04061,0.01337,2.20392,0.00519,-0.01903,2.11070,0.41774,0.38834,-0.30020,-0.57870,-4.40486,821.85656,825.75701,0.61085,12.51925,0.57199,-0.27750,0.00000,9.70867,9.43116
38.62300,0.89424,0.28278,0.46453,-0.00438,0.16828,-0.17145,0.04061,0.01337,2.20392,0.00519,-0.01903,2.11070,0.41774,0.38834,-0.30020,-0.57870,-4.40385,821.76190,825.75701,0.61076,12.51932,0.57199,-0.27857,0.00000,9.70867,9.43009
38.62400,0.89424,0.28278,0.46453,-0.00438,0.16828,-0.17145,0.04061,0.01337,2.20392,0.00519,-0.01903,2.11070,0.41774,0.38834,-0.30020,-0.57870,-4.40385,821.76190,825.75701,0.61076,12.51938,0.57199,-0.27965,0.00000,9.70867,9.42901
38.62500,0.98706,0.24104,0.47405,-0.00554,0.16728,-0.16439,0.04412,0.01143,2.20392,0.00500,-0.01734,2.10886,0.40769,0.39968,-0.30020,-0.57199,-4.43343,824.51757,825.75701,0.61329,12.51943,0.57199,-0.28068,0.00000,9.77412,9.49344
38.62599,0.98706,0.24104,0.47405,-0.00554,0.16728,-0.16439,0.04412,0.01143,2.20392,0.00500,-0.01734,2.10886,0.40769,0.39968,-0.30020,-0.57199,-4.43343,824.51757,825.75701,0.61329,12.51948,0.57199,-0.28170,0.00000,9.77412,9.49241
38.62699,0.98706,0.24104,0.47405,-0.00267,0.16204,-0.16295,0.04412,0.01143,2.20392,0.00500,-0.01734,2.10886,0.40769,0.39968,-0.30020,-0.57199,-4.43240,824.42132,825.75701,0.61320,12.51952,0.57199,-0.28289,0.00000,9.77412,9.49122
38.62799,0.98706,0.24104,0.47405,-0.00267,0.16204,-0.16295,0.04412,0.01143,2.20392,0.00500,-0.01734,2.10886,0.40769,0.39968,-0.30020,-0.57199,-4.43240,824.42132,825.75701,0.61320,12.51956,0.56750,-0.28408,0.00000,9.77412,9.49003
38.62900,0.98706,0.24104,0.47405,0.00221,0.16206,-0.16297,0.04412,0.01143,2.20392,0.00500,-0.01734,2.10886,0.40769,0.39968,-0.30020,-0.57199,-4.43134,824.32299,825.75701,0.61311,12.51959,0.56750,-0.28515,0.00000,9.77412,9.48896
38.63000,0.98706,0.24104,0.47405,0.00221,0.16206,-0.16297,0.04412,0.01143,2.20392,0.00500,-0.01734,2.10886,0.40769,0.39968,-0.30020,-0.57199,-4.43134,824.32299,825.75701,0.61311,12.51961,0.56750,-0.28623,0.00000,9.77412,9.48789
38.63100,0.98706,0.24104,0.47405,0.00070,0.16410,-0.15923,0.04412,0.01143,2.20392,0.00500,-0.01734,2.10886,0.40769,0.39968,-0.30020,-0.57199,-4.43047,824.24200,817.48443,0.61303,12.51963,0.56750,-0.28702,0.00000,9.77412,9.48709
38.63199,0.98706,0.24104,0.47405,0.00070,0.16410,-0.15923,0.04412,0.01143,2.20392,0.00500,-0.01734,2.10886,0.40769,0.39968,-0.30020,-0.57199,-4.43047,824.24200,815.25689,0.61303,12.51964,0.56750,-0.28781,0.00000,9.77412,9.48630
38.63299,0.98706,0.24104,0.47405,-0.00243,0.15893,-0.15515,0.04412,0.01143,2.20392,0.00500,-0.01734,2.10886,0.40769,0.39968,-0.30020,-0.57199,-4.42977,824.17645,815.25689,0.61297,12.51964,0.56750,-0.28853,0.00000,9.77412,9.48559
38.63399,0.98706,0.24104,0.47405,-0.00243,0.15893,-0.15515,0.04412,0.01143,2.20392,0.00500,-0.01734,2.10886,0.40769,0.39968,-0.30020,-0.57199,-4.42977,824.17645,817.48443,0.61297,12.51964,0.56750,-0.28924,0.00000,9.77412,9.48487
38.63499,0.88436,0.30135,0.48201,0.00256,0.15173,-0.15389,0.03982,0.01411,2.20392,0.00490,-0.01574,2.10721,0.40094,0.40470,-0.30020,-0.56750,-4.44498,825.59051,815.25689,0.61427,12.51963,0.56750,-0.28984,0.00000,9.80801,9.51816
38.63600,0.88436,0.30135,0.48201,0.00256,0.15173,-0.15389,0.03982,0.01411,2.20392,0.00490,-0.01574,2.10721,0.40094,0.40470,-0.30020,-0.56750,-4.44498,825.59051,815.25689,0.61427,12.51962,0.56750,-0.29044,0.00000,9.80801,9.51756
38.63700,0.88436,0.30135,0.48201,0.01042,0.15236,-0.15045,0.03982,0.01411,2.20392,0.00490,-0.01574,2.10721,0.40094,0.40470,-0.30020,-0.56750,-4.44460,825.55535,815.25689,0.61424,12.51960,0.56750,-0.29065,0.00000,9.80801,9.51735
38.63800,0.88436,0.30135,0.48201,0.01042,0.15236,-0.15045,0.03982,0.01411,2.20392,0.00490,-0.01574,2.10721,0.40094,0.40470,-0.30020,-0.56750,-4.44460,825.55535,815.25689,0.61424,12.51958,0.56750,-0.29086,0.00000,9.80801,9.51714
38.63899,0.88436,0.30135,0.48201,0.01067,0.15521,-0.14184,0.03982,0.01411,2.20392,0.00490,-0.01574,2.10721,0.40094,0.40470,-0.30020,-0.56750,-4.44466,825.56060,815.25689,0.61425,12.51955,0.56750,-0.29053,0.00000,9.80801,9.51747
38.63999,0.88436,0.30135,0.48201,0.01067,0.15521,-0.14184,0.03982,0.01411,2.20392,0.00490,-0.01574,2.10721,0.40094,0.40470,-0.30020,-0.56750,-4.44466,825.56060,815.25689,0.61425,12.51951,0.56750,-0.29020,0.00000,9.80801,9.51780
38.64099,0.88436,0.30135,0.48201,0.00765,0.15077,-0.13389,0.03982,0.01411,2.20392,0.00490,-0.01574,2.10721,0.40094,0.40470,-0.30020,-0.56750,-4.44513,825.60467,815.25689,0.61429,12.51947,0.56750,-0.28952,0.00000,9.80801,9.51849
38.64199,0.88436,0.30135,0.48201,0.00765,0.15077,-0.13389,0.03982,0.01411,2.20392,0.00490,-0.01574,2.10721,0.40094,0.40470,-0.30020,-0.56750,-4.44513,825.60467,813.77874,0.61429,12.51943,0.56750,-0.28883,0.00000,9.80801,9.51917
38.64300,0.88436,0.30135,0.48201,0.01028,0.14447,-0.13017,0.03982,0.01411,2.20392,0.00490,-0.01574,2.10721,0.40094,0.40470,-0.30020,-0.56750,-4.44593,825.67901,815.25689,0.61437,12.51938,0.56750,-0.28780,0.00000,9.80801,9.52020
38.64400,0.88436,0.30135,0.48201,0.01028,0.14447,-0.13017,0.03982,0.01411,2.20392,0.00490,-0.01574,2.10721,0.40094,0.40470,-0.30020,-0.56750,-4.44593,825.67901,815.25689,0.61437,12.51932,0.56750,-0.28677,0.00000,9.80801,9.52124
38.64500,0.88883,0.24976,0.48983,0.01403,0.14392,-0.12592,0.03851,0.01272,2.20392,0.00489,-0.01421,2.10570,0.40094,0.40470,-0.30020,-0.56750,-4.44683,825.76214,813.77874,0.61445,12.51926,0.56750,-0.28520,0.00000,9.80733,9.52212
38.64599,0.88883,0.24976,0.48983,0.01403,0.14392,-0.12592,0.03851,0.01272,2.20392,0.00489,-0.01421,2.10570,0.40094,0.40470,-0.30020,-0.56750,-4.44683,825.76214,813.77874,0.61445,12.51919,0.56750,-0.28363,0.00000,9.80733,9.52369
38.64699,0.88883,0.24976,0.48983,0.01221,0.14278,-0.11908,0.03851,0.01272,2.20392,0.00489,-0.01421,2.10570,0.40094,0.40470,-0.30020,-0.56750,-4.44850,825.91741,813.77874,0.61460,12.51911,0.56750,-0.28162,0.00000,9.80733,9.52570
38.64799,0.88883,0.24976,0.48983,0.01221,0.14278,-0.11908,0.03851,0.01272,2.20392,0.00489,-0.01421,2.10570,0.40094,0.40470,-0.30020,-0.56750,-4.44850,825.91741,813.77874,0.61460,12.51903,0.56049,-0.27961,0.00000,9.80733,9.52771
38.64899,0.88883,0.24976,0.48983,0.01118,0.13585,-0.11453,0.03851,0.01272,2.20392,0.00489,-0.01421,2.10570,0.40094,0.40470,-0.30020,-0.56750,-4.45045,826.09820,813.77874,0.61477,12.51894,0.56049,-0.27745,0.00000,9.80733,9.52987
38.65000,0.88883,0.24976,0.48983,0.01118,0.13585,-0.11453,0.03851,0.01272,2.20392,0.00489,-0.01421,2.10570,0.40094,0.40470,-0.30020,-0.56750,-4.45045,826.09820,813.04156,0.61477,12.51884,0.56049,-0.27529,0.00000,9.80733,9.53203
38.65100,0.88883,0.24976,0.48983,0.01654,0.13245,-0.11254,0.03851,0.01272,2.20392,0.00489,-0.01421,2.10570,0.40094,0.40470,-0.30020,-0.56750,-4.45254,826.29254,813.04156,0.61496,12.51874,0.56049,-0.27296,0.00000,9.80733,9.53436
38.65200,0.88883,0.24976,0.48983,0.01654,0.13245,-0.11254,0.03851,0.01272,2.20392,0.00489,-0.01421,2.10570,0.40094,0.40470,-0.30020,-0.56750,-4.45254,826.29254,813.04156,0.61496,12.51863,0.56049,-0.27064,0.00000,9.80733,9.53668
38.65299,0.88883,0.24976,0.48983,0.02049,0.13802,-0.10639,0.03851,0.01272,2.20392,0.00489,-0.01421,2.10570,0.40094,0.40470,-0.30020,-0.56750,-4.45486,826.50799,816.74053,0.61517,12.51851,0.56049,-0.26799,0.00000,9.80733,9.53933
38.65399,0.88883,0.24976,0.48983,0.02049,0.13802,-0.10639,0.03851,0.01272,2.20392,0.00489,-0.01421,2.10570,0.40094,0.40470,-0.30020,-0.56750,-4.45486,826.50799,816.74053,0.61517,12.51838,0.56049,-0.26534,0.00000,9.80733,9.54198
38.65499,1.03169,0.14632,0.49647,0.01790,0.14219,-0.09490,0.04490,0.00741,2.20392,0.00493,-0.01274,2.10447,0.39044,0.41554,-0.30020,-0.56049,-4.48838,829.61175,820.47338,0.61804,12.51825,0.56049,-0.26240,0.00000,9.87351,9.61111
38.65599,1.03169,0.14632,0.49647,0.01790,0.14219,-0.09490,0.04490,0.00741,2.20392,0.00493,-0.01274,2.10447,0.39044,0.41554,-0.30020,-0.56049,-4.48838,829.61175,820.47338,0.61804,12.51811,0.56049,-0.25945,0.00000,9.87351,9.61405
38.65700,1.03169,0.14632,0.49647,0.01698,0.13906,-0.08377,0.04490,0.00741,2.20392,0.00493,-0.01274,2.10447,0.39044,0.41554,-0.30020,-0.56049,-4.49108,829.86108,820.47338,0.61829,12.51797,0.56049,-0.25662,0.00000,9.87351,9.61689
38.65800,1.03169,0.14632,0.49647,0.01698,0.13906,-0.08377,0.04490,0.00741,2.20392,0.00493,-0.01274,2.10447,0.39044,0.41554,-0.30020,-0.56049,-4.49108,829.86108,822.72949,0.61829,12.51782,0.55339,-0.25379,0.00000,9.87351,9.61972
38.65900,1.03169,0.14632,0.49647,0.02169,0.13819,-0.07325,0.04490,0.00741,2.20392,0.00493,-0.01274,2.10447,0.39044,0.41554,-0.30020,-0.56049,-4.49368,830.10083,820.47338,0.61852,12.51766,0.55339,-0.25106,0.00000,9.87351,9.62244
38.65999,1.03169,0.14632,0.49647,0.02169,0.13819,-0.07325,0.04490,0.00741,2.20392,0.00493,-0.01274,2.10447,0.39044,0.41554,-0.30020,-0.56049,-4.49368,830.10083,820.47338,0.61852,12.51750,0.55339,-0.24834,0.00000,9.87351,9.62517
38.66099,1.03169,0.14632,0.49647,0.02360,0.14402,-0.05817,0.04490,0.00741,2.20392,0.00493,-0.01274,2.10447,0.39044,0.41554,-0.30020,-0.56049,-4.49619,830.33288,825.75701,0.61875,12.51733,0.55339,-0.24568,0.00000,9.87351,9.62783
38.66199,1.03169,0.14632,0.49647,0.02360,0.14402,-0.05817,0.04490,0.00741,2.20392,0.00493,-0.01274,2.10447,0.39044,0.41554,-0.30020,-0.56049,-4.49619,830.33288,825.75701,0.61875,12.51716,0.55339,-0.24302,0.00000,9.87351,9.63049
38.66299,1.03169,0.14632,0.49647,0.02066,0.14746,-0.04015,0.04490,0.00741,2.20392,0.00493,-0.01274,2.10447,0.39044,0.41554,-0.30020,-0.56049,-4.49854,830.54962,820.47338,0.61897,12.51698,0.55339,-0.24065,0.00000,9.87351,9.63285
38.66400,1.03169,0.14632,0.49647,0.02066,0.14746,-0.04015,0.04490,0.00741,2.20392,0.00493,-0.01274,2.10447,0.39044,0.41554,-0.30020,-0.56049,-4.49854,830.54962,820.47338,0.61897,12.51680,0.55339,-0.23829,0.00000,9.87351,9.63522
38.66500,1.09418,0.24347,0.50063,0.02264,0.14648,-0.02572,0.05066,0.01043,2.20392,0.00503,-0.01135,2.10354,0.37979,0.42233,-0.30020,-0.55339,-4.52641,833.11865,820.47338,0.62136,12.51662,0.55339,-0.23635,0.00000,9.92889,9.69254
38.66600,1.09418,0.24347,0.50063,0.02264,0.14648,-0.02572,0.05066,0.01043,2.20392,0.00503,-0.01135,2.10354,0.37979,0.42233,-0.30020,-0.55339,-4.52641,833.11865,820.47338,0.62136,12.51643,0.55339,-0.23441,0.00000,9.92889,9.69448
38.66699,1.09418,0.24347,0.50063,0.03072,0.15091,-0.01401,0.05066,0.01043,2.20392,0.00503,-0.01135,2.10354,0.37979,0.42233,-0.30020,-0.55339,-4.52802,833.26666,820.47338,0.62151,12.51623,0.55339,-0.23291,0.00000,9.92889,9.69598
38.66799,1.09418,0.24347,0.50063,0.03072,0.15091,-0.01401,0.05066,0.01043,2.20392,0.00503,-0.01135,2.10354,0.37979,0.42233,-0.30020,-0.55339,-4.52802,833.26666,820.47338,0.62151,12.51604,0.55339,-0.23140,0.00000,9.92889,9.69748
38.66899,1.09418,0.24347,0.50063,0.03425,0.16103,0.00020,0.05066,0.01043,2.20392,0.00503,-0.01135,2.10354,0.37979,0.42233,-0.30020,-0.55339,-4.52929,833.38330,820.47338,0.62164,12.51583,0.55339,-0.23019,0.00000,9.92889,9.69869
38.66999,1.09418,0.24347,0.50063,0.03425,0.16103,0.00020,0.05066,0.01043,2.20392,0.00503,-0.01135,2.10354,0.37979,0.42233,-0.30020,-0.55339,-4.52929,833.38330,824.99804,0.62164,12.51563,0.55339,-0.22898,0.00000,9.92889,9.69990
38.67100,1.09418,0.24347,0.50063,0.03192,0.16608,0.01529,0.05066,0.01043,2.20392,0.00503,-0.01135,2.10354,0.37979,0.42233,-0.30020,-0.55339,-4.53021,833.46801,824.99804,0.62174,12.51542,0.55339,-0.22822,0.00000,9.92889,9.70067
38.67200,1.09418,0.24347,0.50063,0.03192,0.16608,0.01529,0.05066,0.01043,2.20392,0.00503,-0.01135,2.10354,0.37979,0.42233,-0.30020,-0.55339,-4.53021,833.46801,824.99804,0.62174,12.51521,0.55339,-0.22746,0.00000,9.92889,9.70143
38.67300,1.09418,0.24347,0.50063,0.03301,0.16622,0.02713,0.05066,0.01043,2.20392,0.00503,-0.01135,2.10354,0.37979,0.42233,-0.30020,-0.55339,-4.53067,833.51013,824.99804,0.62180,12.51499,0.55339,-0.22724,0.00000,9.92889,9.70165
38.67399,1.09418,0.24347,0.50063,0.03301,0.16622,0.02713,0.05066,0.01043,2.20392,0.00503,-0.01135,2.10354,0.37979,0.42233,-0.30020,-0.55339,-4.53067,833.51013,824.99804,0.62180,12.51478,0.55339,-0.22702,0.00000,9.92889,9.70186
38.67499,0.92904,0.22787,0.50188,0.03747,0.17093,0.03912,0.04548,0.01055,2.20392,0.00519,-0.00983,2.10330,0.37979,0.42233,-0.30020,-0.55339,-4.52960,833.41156,824.99804,0.62173,12.51456,0.55339,-0.22707,0.00000,9.92643,9.69935
38.67599,0.92904,0.22787,0.50188,0.03747,0.17093,0.03912,0.04548,0.01055,2.20392,0.00519,-0.00983,2.10330,0.37979,0.42233,-0.30020,-0.55339,-4.52960,833.41156,824.99804,0.62173,12.51433,0.55339,-0.22712,0.00000,9.92643,9.69930
38.67699,0.92904,0.22787,0.50188,0.03764,0.17752,0.05544,0.04548,0.01055,2.20392,0.00519,-0.00983,2.10330,0.37979,0.42233,-0.30020,-0.55339,-4.52953,833.40545,824.99804,0.62175,12.51411,0.55339,-0.22721,0.00000,9.92643,9.69921
38.67800,0.92904,0.22787,0.50188,0.03764,0.17752,0.05544,0.04548,0.01055,2.20392,0.00519,-0.00983,2.10330,0.37979,0.42233,-0.30020,-0.55339,-4.52953,833.40545,824.99804,0.62175,12.51388,0.54619,-0.22731,0.00000,9.92643,9.69912
