time,target gyro x,target gyro y,target gyro z,gyro x,gyro y,gyro z,target angle x,target angle y,target angle z,angle x,angle y,angle z,target vel z,vel z,target pos z,pos z,desire thrust,desire rotor speed,rotor speed,motor_output,bettery voltage,height,thrust,imu_z,acc_z_d,acc_z_com
38.73300,0.69681,0.38591,1.16742,-0.19914,-0.04735,-0.06520,0.04865,-0.00430,1.92283,0.04479,-0.01953,1.68608,0.02070,0.01309,-0.65009,-0.66389,-4.39132,820.59265,831.10913,0.61529,12.40532,0.66389,-0.37356,-10.42164,9.77684,9.40327
38.73400,0.69681,0.38591,1.16742,-0.19914,-0.04735,-0.06520,0.04865,-0.00430,1.92283,0.04479,-0.01953,1.68608,0.02070,0.01309,-0.65009,-0.66389,-4.39132,820.59265,831.10913,0.61529,12.40525,0.66389,-0.37485,-10.42164,9.77684,9.40198
38.73500,0.69681,0.38591,1.16742,-0.19751,-0.04768,-0.05703,0.04865,-0.00430,1.92283,0.04479,-0.01953,1.68608,0.02070,0.01309,-0.65009,-0.66389,-4.39022,820.48944,831.10913,0.61520,12.40519,0.66389,-0.37593,-10.31459,9.77684,9.40091
38.73600,0.69681,0.38591,1.16742,-0.19751,-0.04768,-0.05703,0.04865,-0.00430,1.92283,0.04479,-0.01953,1.68608,0.02070,0.01309,-0.65009,-0.66389,-4.39022,820.48944,831.10913,0.61520,12.40512,0.66389,-0.37700,-10.31460,9.77684,9.39983
38.73699,-1.57079,0.78135,1.15412,-0.19916,-0.05152,-0.04996,-0.17149,0.01736,1.92283,0.04261,-0.01983,1.68551,0.54569,0.01309,-0.30010,-0.66389,-3.70441,753.68438,825.75701,0.55309,12.40507,0.66389,-0.38100,-10.31169,8.31337,7.93236
38.73799,-1.57079,0.78135,1.15412,-0.19916,-0.05152,-0.04996,-0.17149,0.01736,1.92283,0.04261,-0.01983,1.68551,0.54569,0.01309,-0.30010,-0.66389,-3.70441,753.68438,825.75701,0.55309,12.40501,0.66389,-0.38500,-10.31169,8.31337,7.92837
38.73899,-1.57079,0.78135,1.15412,-0.19677,-0.05421,-0.04885,-0.17149,0.01736,1.92283,0.04261,-0.01983,1.68551,0.54569,0.01309,-0.30010,-0.66389,-3.70071,753.30767,825.75701,0.55274,12.40496,0.66389,-0.38893,-10.27821,8.31337,7.92444
38.74000,-1.57079,0.78135,1.15412,-0.19677,-0.05421,-0.04885,-0.17149,0.01736,1.92283,0.04261,-0.01983,1.68551,0.54569,0.01309,-0.30010,-0.66389,-3.70071,753.30767,825.75701,0.55274,12.40491,0.66389,-0.39286,-10.27821,8.31337,7.92051
38.74100,-1.57079,0.78135,1.15412,-0.19437,-0.04963,-0.04912,-0.17149,0.01736,1.92283,0.04261,-0.01983,1.68551,0.54569,0.01309,-0.30010,-0.66389,-3.69722,752.95239,825.75701,0.55242,12.40486,0.66389,-0.39640,-10.08533,8.31337,7.91696
38.74200,-1.57079,0.78135,1.15412,-0.19437,-0.04963,-0.04912,-0.17149,0.01736,1.92283,0.04261,-0.01983,1.68551,0.54569,0.01309,-0.30010,-0.66389,-3.69722,752.95239,831.10913,0.55242,12.40482,0.66389,-0.39994,-10.08533,8.31337,7.91342
38.74300,-1.57079,0.78135,1.15412,-0.19698,-0.04593,-0.04716,-0.17149,0.01736,1.92283,0.04261,-0.01983,1.68551,0.54569,0.01309,-0.30010,-0.66389,-3.69409,752.63397,831.10913,0.55213,12.40478,0.66389,-0.40309,-9.88882,8.31337,7.91027
38.74399,-1.57079,0.78135,1.15412,-0.19698,-0.04593,-0.04716,-0.17149,0.01736,1.92283,0.04261,-0.01983,1.68551,0.54569,0.01309,-0.30010,-0.66389,-3.69409,752.63397,831.10913,0.55213,12.40475,0.66389,-0.40625,-9.88882,8.31337,7.90712
38.74499,-1.57079,0.78135,1.15412,-0.19647,-0.05063,-0.04614,-0.17149,0.01736,1.92283,0.04261,-0.01983,1.68551,0.54569,0.01309,-0.30010,-0.66389,-3.69122,752.34167,831.10913,0.55186,12.40471,0.66389,-0.40924,-9.80919,8.31337,7.90413
38.74599,-1.57079,0.78135,1.15412,-0.19647,-0.05063,-0.04614,-0.17149,0.01736,1.92283,0.04261,-0.01983,1.68551,0.54569,0.01309,-0.30010,-0.66389,-3.69122,752.34167,831.10913,0.55186,12.40468,0.66380,-0.41223,-9.80919,8.31337,7.90114
38.74700,0.13142,0.36423,1.17444,-0.18733,-0.05496,-0.04592,-0.07981,0.00546,1.92283,0.04051,-0.02023,1.68513,0.54554,0.01173,-0.30010,-0.66380,-3.64145,747.25207,828.80694,0.54713,12.40466,0.66380,-0.41526,-9.72809,8.21281,7.79755
38.74800,0.13142,0.36423,1.17444,-0.18733,-0.05496,-0.04592,-0.07981,0.00546,1.92283,0.04051,-0.02023,1.68513,0.54554,0.01173,-0.30010,-0.66380,-3.64145,747.25207,828.80694,0.54713,12.40463,0.66380,-0.41829,-9.72809,8.21281,7.79451
38.74900,0.13142,0.36423,1.17444,-0.17952,-0.05122,-0.04097,-0.07981,0.00546,1.92283,0.04051,-0.02023,1.68513,0.54554,0.01173,-0.30010,-0.66380,-3.63875,746.97467,827.27917,0.54687,12.40461,0.66380,-0.42105,-9.59144,8.21281,7.79176
38.75000,0.13142,0.36423,1.17444,-0.17952,-0.05122,-0.04097,-0.07981,0.00546,1.92283,0.04051,-0.02023,1.68513,0.54554,0.01173,-0.30010,-0.66380,-3.63875,746.97467,824.99804,0.54687,12.40459,0.66380,-0.42380,-9.59144,8.21281,7.78900
38.75099,0.13142,0.36423,1.17444,-0.17920,-0.04705,-0.03213,-0.07981,0.00546,1.92283,0.04051,-0.02023,1.68513,0.54554,0.01173,-0.30010,-0.66380,-3.63621,746.71429,827.27917,0.54663,12.40458,0.66380,-0.42648,-9.54985,8.21281,7.78633
38.75199,0.13142,0.36423,1.17444,-0.17920,-0.04705,-0.03213,-0.07981,0.00546,1.92283,0.04051,-0.02023,1.68513,0.54554,0.01173,-0.30010,-0.66380,-3.63621,746.71429,827.27917,0.54663,12.40456,0.66380,-0.42915,-9.54985,8.21281,7.78365
38.75299,0.13142,0.36423,1.17444,-0.17679,-0.04756,-0.02602,-0.07981,0.00546,1.92283,0.04051,-0.02023,1.68513,0.54554,0.01173,-0.30010,-0.66380,-3.63361,746.44726,824.99804,0.54638,12.40455,0.66380,-0.43205,-9.65924,8.21281,7.78076
38.75400,0.13142,0.36423,1.17444,-0.17679,-0.04756,-0.02602,-0.07981,0.00546,1.92283,0.04051,-0.02023,1.68513,0.54554,0.01173,-0.30010,-0.66380,-3.63361,746.44726,824.24047,0.54638,12.40454,0.66380,-0.43494,-9.65924,8.21281,7.77787
38.75500,0.13142,0.36423,1.17444,-0.16768,-0.04466,-0.02172,-0.07981,0.00546,1.92283,0.04051,-0.02023,1.68513,0.54554,0.01173,-0.30010,-0.66380,-3.63080,746.15869,824.24047,0.54612,12.40453,0.66380,-0.43806,-9.77450,8.21281,7.77474
38.75600,0.13142,0.36423,1.17444,-0.16768,-0.04466,-0.02172,-0.07981,0.00546,1.92283,0.04051,-0.02023,1.68513,0.54554,0.01173,-0.30010,-0.66380,-3.63080,746.15869,824.24047,0.54612,12.40452,0.66359,-0.44118,-9.77450,8.21281,7.77162
38.75699,0.77605,0.45759,1.17257,-0.16171,-0.03609,-0.01212,-0.03958,0.00848,1.92283,0.03860,-0.02059,1.68491,0.54524,0.01322,-0.30010,-0.66359,-3.62120,745.17156,823.48431,0.54520,12.40450,0.66359,-0.44445,-9.83012,8.19864,7.75419
38.75799,0.77605,0.45759,1.17257,-0.16171,-0.03609,-0.01212,-0.03958,0.00848,1.92283,0.03860,-0.02059,1.68491,0.54524,0.01322,-0.30010,-0.66359,-3.62120,745.17156,823.48431,0.54520,12.40449,0.66359,-0.44771,-9.83012,8.19864,7.75092
38.75899,0.77605,0.45759,1.17257,-0.16246,-0.03211,0.00327,-0.03958,0.00848,1.92283,0.03860,-0.02059,1.68491,0.54524,0.01322,-0.30010,-0.66359,-3.61805,744.84741,821.22412,0.54490,12.40448,0.66359,-0.45119,-9.94008,8.19864,7.74744
38.75999,0.77605,0.45759,1.17257,-0.16246,-0.03211,0.00327,-0.03958,0.00848,1.92283,0.03860,-0.02059,1.68491,0.54524,0.01322,-0.30010,-0.66359,-3.61805,744.84741,815.25689,0.54490,12.40448,0.66359,-0.45468,-9.94008,8.19864,7.74396
38.76100,0.77605,0.45759,1.17257,-0.16067,-0.03458,0.02069,-0.03958,0.00848,1.92283,0.03860,-0.02059,1.68491,0.54524,0.01322,-0.30010,-0.66359,-3.61463,744.49554,815.25689,0.54457,12.40447,0.66359,-0.45851,-10.11562,8.19864,7.74012
38.76200,0.77605,0.45759,1.17257,-0.16067,-0.03458,0.02069,-0.03958,0.00848,1.92283,0.03860,-0.02059,1.68491,0.54524,0.01322,-0.30010,-0.66359,-3.61463,744.49554,813.77874,0.54457,12.40447,0.66359,-0.46234,-10.11562,8.19864,7.73629
38.76300,0.77605,0.45759,1.17257,-0.15457,-0.03284,0.04313,-0.03958,0.00848,1.92283,0.03860,-0.02059,1.68491,0.54524,0.01322,-0.30010,-0.66359,-3.61099,744.11975,813.77874,0.54422,12.40447,0.66359,-0.46632,-10.18795,8.19864,7.73231
38.76399,0.77605,0.45759,1.17257,-0.15457,-0.03284,0.04313,-0.03958,0.00848,1.92283,0.03860,-0.02059,1.68491,0.54524,0.01322,-0.30010,-0.66359,-3.61099,744.11975,813.77874,0.54422,12.40447,0.66359,-0.47030,-10.18795,8.19864,7.72833
38.76499,0.77605,0.45759,1.17257,-0.15281,-0.02547,0.07514,-0.03958,0.00848,1.92283,0.03860,-0.02059,1.68491,0.54524,0.01322,-0.30010,-0.66359,-3.60731,743.74060,814.51715,0.54387,12.40447,0.66359,-0.47420,-10.14771,8.19864,7.72443
38.76599,0.77605,0.45759,1.17257,-0.15281,-0.02547,0.07514,-0.03958,0.00848,1.92283,0.03860,-0.02059,1.68491,0.54524,0.01322,-0.30010,-0.66359,-3.60731,743.74060,813.77874,0.54387,12.40447,0.66359,-0.47810,-10.14771,8.19864,7.72054
38.76699,0.75799,0.35966,1.17446,-0.15453,-0.02180,0.11217,-0.02059,0.00407,1.92283,0.03689,-0.02077,1.68539,0.54524,0.01322,-0.30010,-0.66359,-3.60134,743.12524,809.37591,0.54330,12.40447,0.66359,-0.48206,-10.17667,8.19373,7.71166
38.76800,0.75799,0.35966,1.17446,-0.15453,-0.02180,0.11217,-0.02059,0.00407,1.92283,0.03689,-0.02077,1.68539,0.54524,0.01322,-0.30010,-0.66359,-3.60134,743.12524,809.37591,0.54330,12.40447,0.66359,-0.48603,-10.17667,8.19373,7.70769
38.76900,0.75799,0.35966,1.17446,-0.15006,-0.02082,0.14749,-0.02059,0.00407,1.92283,0.03689,-0.02077,1.68539,0.54524,0.01322,-0.30010,-0.66359,-3.59756,742.73474,807.19238,0.54293,12.40448,0.66359,-0.49017,-10.26280,8.19373,7.70355
38.77000,0.75799,0.35966,1.17446,-0.15006,-0.02082,0.14749,-0.02059,0.00407,1.92283,0.03689,-0.02077,1.68539,0.54524,0.01322,-0.30010,-0.66359,-3.59756,742.73474,807.19238,0.54293,12.40449,0.66359,-0.49431,-10.26280,8.19373,7.69941
38.77099,0.75799,0.35966,1.17446,-0.14185,-0.01263,0.18361,-0.02059,0.00407,1.92283,0.03689,-0.02077,1.68539,0.54524,0.01322,-0.30010,-0.66359,-3.59374,742.34094,809.37591,0.54257,12.40450,0.66359,-0.49833,-10.20765,8.19373,7.69539
38.77199,0.75799,0.35966,1.17446,-0.14185,-0.01263,0.18361,-0.02059,0.00407,1.92283,0.03689,-0.02077,1.68539,0.54524,0.01322,-0.30010,-0.66359,-3.59374,742.34094,809.37591,0.54257,12.40452,0.66359,-0.50236,-10.20765,8.19373,7.69136
38.77299,0.75799,0.35966,1.17446,-0.14094,0.00006,0.22577,-0.02059,0.00407,1.92283,0.03689,-0.02077,1.68539,0.54524,0.01322,-0.30010,-0.66359,-3.59014,741.96856,809.37591,0.54222,12.40453,0.66359,-0.50605,-10.03903,8.19373,7.68767
38.77399,0.75799,0.35966,1.17446,-0.14094,0.00006,0.22577,-0.02059,0.00407,1.92283,0.03689,-0.02077,1.68539,0.54524,0.01322,-0.30010,-0.66359,-3.59014,741.96856,807.19238,0.54222,12.40455,0.66359,-0.50974,-10.03903,8.19373,7.68398
38.77500,0.75799,0.35966,1.17446,-0.14456,0.00565,0.27178,-0.02059,0.00407,1.92283,0.03689,-0.02077,1.68539,0.54524,0.01322,-0.30010,-0.66359,-3.58677,741.62066,807.19238,0.54189,12.40458,0.66359,-0.51326,-9.95239,8.19373,7.68046
38.77600,0.75799,0.35966,1.17446,-0.14456,0.00565,0.27178,-0.02059,0.00407,1.92283,0.03689,-0.02077,1.68539,0.54524,0.01322,-0.30010,-0.66359,-3.58677,741.62066,804.29919,0.54189,12.40460,0.66339,-0.51678,-9.95267,8.19373,7.67694
38.77700,0.72486,0.33307,1.16386,-0.14103,0.00582,0.31838,-0.00721,0.00106,1.92283,0.03522,-0.02074,1.68780,0.54494,0.01221,-0.30010,-0.66339,-3.58180,741.10675,797.86480,0.54141,12.40462,0.66339,-0.52020,-9.89899,8.19002,7.66982
38.77799,0.72486,0.33307,1.16386,-0.14103,0.00582,0.31838,-0.00721,0.00106,1.92283,0.03522,-0.02074,1.68780,0.54494,0.01221,-0.30010,-0.66339,-3.58180,741.10675,796.44885,0.54141,12.40465,0.66339,-0.52361,-9.89899,8.19002,7.66640
38.77899,0.72486,0.33307,1.16386,-0.13329,0.01084,0.36936,-0.00721,0.00106,1.92283,0.03522,-0.02074,1.68780,0.54494,0.01221,-0.30010,-0.66339,-3.57879,740.79486,796.44885,0.54112,12.40468,0.66339,-0.52665,-9.70865,8.19002,7.66337
38.77999,0.72486,0.33307,1.16386,-0.13329,0.01084,0.36936,-0.00721,0.00106,1.92283,0.03522,-0.02074,1.68780,0.54494,0.01221,-0.30010,-0.66339,-3.57879,740.79486,796.44885,0.54112,12.40472,0.66339,-0.52969,-9.70865,8.19002,7.66033
38.78099,0.72486,0.33307,1.16386,-0.13365,0.01846,0.42715,-0.00721,0.00106,1.92283,0.03522,-0.02074,1.68780,0.54494,0.01221,-0.30010,-0.66339,-3.57617,740.52386,795.74279,0.54087,12.40476,0.66339,-0.53226,-9.47446,8.19002,7.65776
38.78200,0.72486,0.33307,1.16386,-0.13365,0.01846,0.42715,-0.00721,0.00106,1.92283,0.03522,-0.02074,1.68780,0.54494,0.01221,-0.30010,-0.66339,-3.57617,740.52386,795.74279,0.54087,12.40480,0.66339,-0.53483,-9.47446,8.19002,7.65519
38.78300,0.72486,0.33307,1.16386,-0.13928,0.02010,0.48459,-0.00721,0.00106,1.92283,0.03522,-0.02074,1.68780,0.54494,0.01221,-0.30010,-0.66339,-3.57385,740.28350,792.93103,0.54064,12.40485,0.66339,-0.53723,-9.39012,8.19002,7.65279
38.78400,0.72486,0.33307,1.16386,-0.13928,0.02010,0.48459,-0.00721,0.00106,1.92283,0.03522,-0.02074,1.68780,0.54494,0.01221,-0.30010,-0.66339,-3.57385,740.28350,792.93103,0.54064,12.40490,0.66339,-0.53963,-9.39012,8.19002,7.65039
38.78499,0.72486,0.33307,1.16386,-0.13735,0.02079,0.53530,-0.00721,0.00106,1.92283,0.03522,-0.02074,1.68780,0.54494,0.01221,-0.30010,-0.66339,-3.57163,740.05310,794.33441,0.54042,12.40496,0.66339,-0.54199,-9.37172,8.19002,7.64803
38.78599,0.72486,0.33307,1.16386,-0.13735,0.02079,0.53530,-0.00721,0.00106,1.92283,0.03522,-0.02074,1.68780,0.54494,0.01221,-0.30010,-0.66339,-3.57163,740.05310,794.33441,0.54042,12.40502,0.66339,-0.54435,-9.37172,8.19002,7.64566
38.78699,0.54850,0.35843,1.13808,-0.13008,0.03087,0.58339,-0.00551,0.00063,1.92283,0.03357,-0.02054,1.69289,0.54494,0.01221,-0.30010,-0.66339,-3.56952,739.83489,794.33441,0.54021,12.40508,0.66339,-0.54641,-9.21686,8.18993,7.64352
38.78799,0.54850,0.35843,1.13808,-0.13008,0.03087,0.58339,-0.00551,0.00063,1.92283,0.03357,-0.02054,1.69289,0.54494,0.01221,-0.30010,-0.66339,-3.56952,739.83489,794.33441,0.54021,12.40515,0.66339,-0.54846,-9.21686,8.18993,7.64146
38.78900,0.54850,0.35843,1.13808,-0.12968,0.04470,0.63402,-0.00551,0.00063,1.92283,0.03357,-0.02054,1.69289,0.54494,0.01221,-0.30010,-0.66339,-3.56781,739.65734,794.33441,0.54004,12.40522,0.66339,-0.55008,-8.99725,8.18993,7.63985
38.79000,0.54850,0.35843,1.13808,-0.12968,0.04470,0.63402,-0.00551,0.00063,1.92283,0.03357,-0.02054,1.69289,0.54494,0.01221,-0.30010,-0.66339,-3.56781,739.65734,794.33441,0.54004,12.40530,0.66339,-0.55169,-8.99725,8.18993,7.63824
38.79100,0.54850,0.35843,1.13808,-0.13377,0.04934,0.68396,-0.00551,0.00063,1.92283,0.03357,-0.02054,1.69289,0.54494,0.01221,-0.30010,-0.66339,-3.56638,739.50915,795.74279,0.53990,12.40538,0.66339,-0.55314,-8.91333,8.18993,7.63679
38.79199,0.54850,0.35843,1.13808,-0.13377,0.04934,0.68396,-0.00551,0.00063,1.92283,0.03357,-0.02054,1.69289,0.54494,0.01221,-0.30010,-0.66339,-3.56638,739.50915,794.33441,0.53990,12.40547,0.66339,-0.55458,-8.91333,8.18993,7.63534
38.79299,0.54850,0.35843,1.13808,-0.13025,0.04750,0.73011,-0.00551,0.00063,1.92283,0.03357,-0.02054,1.69289,0.54494,0.01221,-0.30010,-0.66339,-3.56504,739.37017,794.33441,0.53976,12.40557,0.66339,-0.55601,-8.90141,8.18993,7.63392
38.79399,0.54850,0.35843,1.13808,-0.13025,0.04750,0.73011,-0.00551,0.00063,1.92283,0.03357,-0.02054,1.69289,0.54494,0.01221,-0.30010,-0.66339,-3.56504,739.37017,794.33441,0.53976,12.40567,0.66339,-0.55743,-8.90141,8.18993,7.63250
38.79499,0.54850,0.35843,1.13808,-0.12178,0.05087,0.77721,-0.00551,0.00063,1.92283,0.03357,-0.02054,1.69289,0.54494,0.01221,-0.30010,-0.66339,-3.56382,739.24420,794.33441,0.53963,12.40577,0.66339,-0.55861,-8.77894,8.18993,7.63132
38.79600,0.54850,0.35843,1.13808,-0.12178,0.05087,0.77721,-0.00551,0.00063,1.92283,0.03357,-0.02054,1.69289,0.54494,0.01221,-0.30010,-0.66339,-3.56382,739.24420,790.83514,0.53963,12.40589,0.66319,-0.55979,-8.77893,8.18993,7.63014
38.79700,0.55079,0.38043,1.09939,-0.12083,0.05803,0.82783,-0.00110,0.00119,1.92283,0.03191,-0.02014,1.70059,0.54464,0.00939,-0.30010,-0.66319,-3.55928,738.77282,784.61352,0.53918,12.40601,0.66319,-0.56066,-8.61770,8.18225,7.62159
38.79800,0.55079,0.38043,1.09939,-0.12083,0.05803,0.82783,-0.00110,0.00119,1.92283,0.03191,-0.02014,1.70059,0.54464,0.00939,-0.30010,-0.66319,-3.55928,738.77282,784.61352,0.53918,12.40613,0.66319,-0.56153,-8.61770,8.18225,7.62072
38.79899,0.55079,0.38043,1.09939,-0.12539,0.05995,0.87438,-0.00110,0.00119,1.92283,0.03191,-0.02014,1.70059,0.54464,0.00939,-0.30010,-0.66319,-3.55849,738.69067,783.92828,0.53910,12.40626,0.66319,-0.56235,-8.59420,8.18225,7.61989
38.79999,0.55079,0.38043,1.09939,-0.12539,0.05995,0.87438,-0.00110,0.00119,1.92283,0.03191,-0.02014,1.70059,0.54464,0.00939,-0.30010,-0.66319,-3.55849,738.69067,783.92828,0.53910,12.40640,0.66319,-0.56318,-8.59420,8.18225,7.61907
38.80099,0.55079,0.38043,1.09939,-0.12373,0.05975,0.91082,-0.00110,0.00119,1.92283,0.03191,-0.02014,1.70059,0.54464,0.00939,-0.30010,-0.66319,-3.55768,738.60656,779.84179,0.53901,12.40655,0.66319,-0.56409,-8.63803,8.18225,7.61816
38.80199,0.55079,0.38043,1.09939,-0.12373,0.05975,0.91082,-0.00110,0.00119,1.92283,0.03191,-0.02014,1.70059,0.54464,0.00939,-0.30010,-0.66319,-3.55768,738.60656,779.84179,0.53901,12.40670,0.66319,-0.56500,-8.63803,8.18225,7.61725
38.80300,0.55079,0.38043,1.09939,-0.11852,0.06611,0.94281,-0.00110,0.00119,1.92283,0.03191,-0.02014,1.70059,0.54464,0.00939,-0.30010,-0.66319,-3.55689,738.52471,779.84179,0.53892,12.40686,0.66319,-0.56578,-8.57127,8.18225,7.61647
38.80400,0.55079,0.38043,1.09939,-0.11852,0.06611,0.94281,-0.00110,0.00119,1.92283,0.03191,-0.02014,1.70059,0.54464,0.00939,-0.30010,-0.66319,-3.55689,738.52471,779.84179,0.53892,12.40702,0.66319,-0.56655,-8.57127,8.18225,7.61569
38.80500,0.55079,0.38043,1.09939,-0.12152,0.07422,0.97742,-0.00110,0.00119,1.92283,0.03191,-0.02014,1.70059,0.54464,0.00939,-0.30010,-0.66319,-3.55627,738.46002,779.84179,0.53884,12.40720,0.66319,-0.56711,-8.45997,8.18225,7.61514
38.80599,0.55079,0.38043,1.09939,-0.12152,0.07422,0.97742,-0.00110,0.00119,1.92283,0.03191,-0.02014,1.70059,0.54464,0.00939,-0.30010,-0.66319,-3.55627,738.46002,779.84179,0.53884,12.40739,0.66310,-0.56767,-8.45997,8.18225,7.61458
38.80699,0.33195,0.42602,1.04938,-0.12938,0.07371,1.01213,-0.00936,0.00383,1.92283,0.03028,-0.01964,1.71043,0.54449,0.01341,-0.30010,-0.66310,-3.56177,739.03118,777.14105,0.53936,12.40758,0.66310,-0.56825,-8.48692,8.19517,7.62692
38.80799,0.33195,0.42602,1.04938,-0.12938,0.07371,1.01213,-0.00936,0.00383,1.92283,0.03028,-0.01964,1.71043,0.54449,0.01341,-0.30010,-0.66310,-3.56177,739.03118,777.14105,0.53936,12.40778,0.66310,-0.56883,-8.48692,8.19517,7.62634
38.80899,0.33195,0.42602,1.04938,-0.12928,0.06898,1.04312,-0.00936,0.00383,1.92283,0.03028,-0.01964,1.71043,0.54449,0.01341,-0.30010,-0.66310,-3.56114,738.96545,777.14105,0.53928,12.40799,0.66310,-0.56961,-8.58150,8.19517,7.62556
38.81000,0.33195,0.42602,1.04938,-0.12928,0.06898,1.04312,-0.00936,0.00383,1.92283,0.03028,-0.01964,1.71043,0.54449,0.01341,-0.30010,-0.66310,-3.56114,738.96545,777.14105,0.53928,12.40821,0.66310,-0.57038,-8.58150,8.19517,7.62479
38.81100,0.33195,0.42602,1.04938,-0.12383,0.07171,1.07413,-0.00936,0.00383,1.92283,0.03028,-0.01964,1.71043,0.54449,0.01341,-0.30010,-0.66310,-3.56045,738.89416,777.14105,0.53919,12.40843,0.66310,-0.57108,-8.54507,8.19517,7.62409
38.81200,0.33195,0.42602,1.04938,-0.12383,0.07171,1.07413,-0.00936,0.00383,1.92283,0.03028,-0.01964,1.71043,0.54449,0.01341,-0.30010,-0.66310,-3.56045,738.89416,777.14105,0.53919,12.40867,0.66310,-0.57178,-8.54507,8.19517,7.62339
38.81299,0.33195,0.42602,1.04938,-0.12598,0.07905,1.10748,-0.00936,0.00383,1.92283,0.03028,-0.01964,1.71043,0.54449,0.01341,-0.30010,-0.66310,-3.55990,738.83715,777.14105,0.53912,12.40891,0.66310,-0.57225,-8.43291,8.19517,7.62292
38.81399,0.33195,0.42602,1.04938,-0.12598,0.07905,1.10748,-0.00936,0.00383,1.92283,0.03028,-0.01964,1.71043,0.54449,0.01341,-0.30010,-0.66310,-3.55990,738.83715,770.47027,0.53912,12.40916,0.66310,-0.57273,-8.43291,8.19517,7.62244
38.81499,0.33195,0.42602,1.04938,-0.13354,0.07966,1.13630,-0.00936,0.00383,1.92283,0.03028,-0.01964,1.71043,0.54449,0.01341,-0.30010,-0.66310,-3.55944,738.78979,768.49133,0.53905,12.40942,0.66310,-0.57323,-8.44627,8.19517,7.62194
38.81600,0.33195,0.42602,1.04938,-0.13354,0.07966,1.13630,-0.00936,0.00383,1.92283,0.03028,-0.01964,1.71043,0.54449,0.01341,-0.30010,-0.66310,-3.55944,738.78979,768.49133,0.53905,12.40969,0.66310,-0.57373,-8.44627,8.19517,7.62144
38.81700,0.43250,0.37047,0.99512,-0.13343,0.07601,1.15556,-0.00697,0.00242,1.92283,0.02851,-0.01909,1.72173,0.54449,0.01341,-0.30010,-0.66310,-3.55879,738.72222,768.49133,0.53897,12.40997,0.66310,-0.57443,-8.54268,8.19498,7.62054
38.81800,0.43250,0.37047,0.99512,-0.13343,0.07601,1.15556,-0.00697,0.00242,1.92283,0.02851,-0.01909,1.72173,0.54449,0.01341,-0.30010,-0.66310,-3.55879,738.72222,770.47027,0.53897,12.41026,0.66310,-0.57512,-8.54268,8.19498,7.61985
38.81900,0.43250,0.37047,0.99512,-0.12783,0.07952,1.17159,-0.00697,0.00242,1.92283,0.02851,-0.01909,1.72173,0.54449,0.01341,-0.30010,-0.66310,-3.55816,738.65667,777.14105,0.53888,12.41055,0.66310,-0.57578,-8.52370,8.19498,7.61919
38.81999,0.43250,0.37047,0.99512,-0.12783,0.07952,1.17159,-0.00697,0.00242,1.92283,0.02851,-0.01909,1.72173,0.54449,0.01341,-0.30010,-0.66310,-3.55816,738.65667,770.47027,0.53888,12.41086,0.66310,-0.57644,-8.52370,8.19498,7.61853
38.82099,0.43250,0.37047,0.99512,-0.13063,0.08791,1.19133,-0.00697,0.00242,1.92283,0.02851,-0.01909,1.72173,0.54449,0.01341,-0.30010,-0.66310,-3.55764,738.60272,770.47027,0.53880,12.41118,0.66310,-0.57689,-8.42230,8.19498,7.61808
38.82199,0.43250,0.37047,0.99512,-0.13063,0.08791,1.19133,-0.00697,0.00242,1.92283,0.02851,-0.01909,1.72173,0.54449,0.01341,-0.30010,-0.66310,-3.55764,738.60272,765.21557,0.53880,12.41150,0.66310,-0.57735,-8.42230,8.19498,7.61762
38.82300,0.43250,0.37047,0.99512,-0.14027,0.08900,1.21062,-0.00697,0.00242,1.92283,0.02851,-0.01909,1.72173,0.54449,0.01341,-0.30010,-0.66310,-3.55720,738.55694,770.47027,0.53873,12.41184,0.66310,-0.57784,-8.43969,8.19498,7.61714
38.82400,0.43250,0.37047,0.99512,-0.14027,0.08900,1.21062,-0.00697,0.00242,1.92283,0.02851,-0.01909,1.72173,0.54449,0.01341,-0.30010,-0.66310,-3.55720,738.55694,770.47027,0.53873,12.41218,0.66310,-0.57833,-8.43969,8.19498,7.61665
38.82500,0.43250,0.37047,0.99512,-0.14170,0.08370,1.22335,-0.00697,0.00242,1.92283,0.02851,-0.01909,1.72173,0.54449,0.01341,-0.30010,-0.66310,-3.55663,738.49804,765.21557,0.53865,12.41254,0.66310,-0.57905,-8.55802,8.19498,7.61592
38.82600,0.43250,0.37047,0.99512,-0.14170,0.08370,1.22335,-0.00697,0.00242,1.92283,0.02851,-0.01909,1.72173,0.54449,0.01341,-0.30010,-0.66310,-3.55663,738.49804,773.12475,0.53865,12.41291,0.66280,-0.57978,-8.55802,8.19498,7.61519
38.82699,0.45352,0.52583,0.93035,-0.13474,0.08411,1.23347,-0.00610,0.01068,1.92283,0.02666,-0.01848,1.73399,0.54404,0.01689,-0.30010,-0.66280,-3.56164,739.01739,773.12475,0.53910,12.41328,0.66280,-0.58051,-8.57248,8.20715,7.62663
38.82799,0.45352,0.52583,0.93035,-0.13474,0.08411,1.23347,-0.00610,0.01068,1.92283,0.02666,-0.01848,1.73399,0.54404,0.01689,-0.30010,-0.66280,-3.56164,739.01739,773.12475,0.53910,12.41367,0.66280,-0.58124,-8.57248,8.20715,7.62590
38.82899,0.45352,0.52583,0.93035,-0.13475,0.09065,1.24661,-0.00610,0.01068,1.92283,0.02666,-0.01848,1.73399,0.54404,0.01689,-0.30010,-0.66280,-3.56103,738.95434,772.45947,0.53900,12.41407,0.66280,-0.58181,-8.49163,8.20715,7.62533
38.83000,0.45352,0.52583,0.93035,-0.13475,0.09065,1.24661,-0.00610,0.01068,1.92283,0.02666,-0.01848,1.73399,0.54404,0.01689,-0.30010,-0.66280,-3.56103,738.95434,772.45947,0.53900,12.41448,0.66280,-0.58238,-8.49163,8.20715,7.62477
38.83100,0.45352,0.52583,0.93035,-0.14389,0.09214,1.25801,-0.00610,0.01068,1.92283,0.02666,-0.01848,1.73399,0.54404,0.01689,-0.30010,-0.66280,-3.56047,738.89654,773.12475,0.53891,12.41490,0.66280,-0.58300,-8.51980,8.20715,7.62414
38.83200,0.45352,0.52583,0.93035,-0.14389,0.09214,1.25801,-0.00610,0.01068,1.92283,0.02666,-0.01848,1.73399,0.54404,0.01689,-0.30010,-0.66280,-3.56047,738.89654,772.45947,0.53891,12.41533,0.66280,-0.58363,-8.51980,8.20715,7.62352
38.83300,0.45352,0.52583,0.93035,-0.14756,0.08818,1.26054,-0.00610,0.01068,1.92283,0.02666,-0.01848,1.73399,0.54404,0.01689,-0.30010,-0.66280,-3.55976,738.82238,773.12475,0.53881,12.41577,0.66280,-0.58453,-8.65900,8.20715,7.62261
38.83399,0.45352,0.52583,0.93035,-0.14756,0.08818,1.26054,-0.00610,0.01068,1.92283,0.02666,-0.01848,1.73399,0.54404,0.01689,-0.30010,-0.66280,-3.55976,738.82238,772.45947,0.53881,12.41622,0.66280,-0.58544,-8.65900,8.20715,7.62171
38.83499,0.45352,0.52583,0.93035,-0.14253,0.09018,1.25791,-0.00610,0.01068,1.92283,0.02666,-0.01848,1.73399,0.54404,0.01689,-0.30010,-0.66280,-3.55887,738.73040,772.45947,0.53868,12.41667,0.66280,-0.58643,-8.70452,8.20715,7.62071
38.83599,0.45352,0.52583,0.93035,-0.14253,0.09018,1.25791,-0.00610,0.01068,1.92283,0.02666,-0.01848,1.73399,0.54404,0.01689,-0.30010,-0.66280,-3.55887,738.73040,771.79522,0.53868,12.41714,0.66219,-0.58743,-8.70452,8.20715,7.61972
38.83700,0.44748,0.41363,0.87071,-0.14284,0.09915,1.25788,-0.00642,0.00877,1.92283,0.02477,-0.01783,1.74666,0.54314,0.02926,-0.30010,-0.66219,-3.57658,740.56597,771.13220,0.54035,12.41762,0.66219,-0.58818,-8.62607,8.24682,7.65863
38.83800,0.44748,0.41363,0.87071,-0.14284,0.09915,1.25788,-0.00642,0.00877,1.92283,0.02477,-0.01783,1.74666,0.54314,0.02926,-0.30010,-0.66219,-3.57658,740.56597,771.13220,0.54035,12.41811,0.66219,-0.58894,-8.62607,8.24682,7.65787
38.83900,0.44748,0.41363,0.87071,-0.15258,0.10301,1.25848,-0.00642,0.00877,1.92283,0.02477,-0.01783,1.74666,0.54314,0.02926,-0.30010,-0.66219,-3.57589,740.49499,771.13220,0.54024,12.41861,0.66219,-0.58965,-8.60154,8.24682,7.65716
38.84000,0.44748,0.41363,0.87071,-0.15258,0.10301,1.25848,-0.00642,0.00877,1.92283,0.02477,-0.01783,1.74666,0.54314,0.02926,-0.30010,-0.66219,-3.57589,740.49499,770.47027,0.54024,12.41912,0.66219,-0.59036,-8.60154,8.24682,7.65645
38.84099,0.44748,0.41363,0.87071,-0.15858,0.09877,1.25341,-0.00642,0.00877,1.92283,0.02477,-0.01783,1.74666,0.54314,0.02926,-0.30010,-0.66219,-3.57518,740.42071,767.83392,0.54012,12.41964,0.66219,-0.59119,-8.65979,8.24682,7.65563
38.84199,0.44748,0.41363,0.87071,-0.15858,0.09877,1.25341,-0.00642,0.00877,1.92283,0.02477,-0.01783,1.74666,0.54314,0.02926,-0.30010,-0.66219,-3.57518,740.42071,766.52252,0.54012,12.42017,0.66219,-0.59201,-8.65979,8.24682,7.65480
38.84299,0.44748,0.41363,0.87071,-0.15631,0.09720,1.24552,-0.00642,0.00877,1.92283,0.02477,-0.01783,1.74666,0.54314,0.02926,-0.30010,-0.66219,-3.57444,740.34423,766.52252,0.54001,12.42071,0.66219,-0.59277,-8.62538,8.24682,7.65405
38.84400,0.44748,0.41363,0.87071,-0.15631,0.09720,1.24552,-0.00642,0.00877,1.92283,0.02477,-0.01783,1.74666,0.54314,0.02926,-0.30010,-0.66219,-3.57444,740.34423,766.52252,0.54001,12.42126,0.66219,-0.59353,-8.62538,8.24682,7.65329
38.84500,0.44748,0.41363,0.87071,-0.15835,0.10193,1.24175,-0.00642,0.00877,1.92283,0.02477,-0.01783,1.74666,0.54314,0.02926,-0.30010,-0.66219,-3.57388,740.28649,765.86853,0.53990,12.42183,0.66219,-0.59396,-8.46542,8.24682,7.65285
38.84600,0.44748,0.41363,0.87071,-0.15835,0.10193,1.24175,-0.00642,0.00877,1.92283,0.02477,-0.01783,1.74666,0.54314,0.02926,-0.30010,-0.66219,-3.57388,740.28649,764.56378,0.53990,12.42240,0.66219,-0.59440,-8.46542,8.24682,7.65241
38.84700,0.46859,0.34964,0.81047,-0.16921,0.10294,1.23905,-0.00581,0.00620,1.92283,0.02275,-0.01703,1.75916,0.54314,0.02926,-0.30010,-0.66219,-3.57347,740.24426,764.56378,0.53981,12.42298,0.66219,-0.59465,-8.36982,8.24663,7.65198
38.84799,0.46859,0.34964,0.81047,-0.16921,0.10294,1.23905,-0.00581,0.00620,1.92283,0.02275,-0.01703,1.75916,0.54314,0.02926,-0.30010,-0.66219,-3.57347,740.24426,764.56378,0.53981,12.42357,0.66219,-0.59489,-8.36982,8.24663,7.65173
38.84899,0.46859,0.34964,0.81047,-0.17574,0.09660,1.22888,-0.00581,0.00620,1.92283,0.02275,-0.01703,1.75916,0.54314,0.02926,-0.30010,-0.66219,-3.57321,740.21759,764.56378,0.53974,12.42418,0.66219,-0.59520,-8.39917,8.24663,7.65143
38.84999,0.46859,0.34964,0.81047,-0.17574,0.09660,1.22888,-0.00581,0.00620,1.92283,0.02275,-0.01703,1.75916,0.54314,0.02926,-0.30010,-0.66219,-3.57321,740.21759,764.56378,0.53974,12.42479,0.66219,-0.59550,-8.39917,8.24663,7.65112
38.85100,0.46859,0.34964,0.81047,-0.17233,0.09345,1.21228,-0.00581,0.00620,1.92283,0.02275,-0.01703,1.75916,0.54314,0.02926,-0.30010,-0.66219,-3.57294,740.18945,764.56378,0.53966,12.42541,0.66219,-0.59578,-8.38514,8.24663,7.65085
38.85200,0.46859,0.34964,0.81047,-0.17233,0.09345,1.21228,-0.00581,0.00620,1.92283,0.02275,-0.01703,1.75916,0.54314,0.02926,-0.30010,-0.66219,-3.57294,740.18945,764.56378,0.53966,12.42605,0.66219,-0.59606,-8.38514,8.24663,7.65057
38.85300,0.46859,0.34964,0.81047,-0.17241,0.09833,1.19751,-0.00581,0.00620,1.92283,0.02275,-0.01703,1.75916,0.54314,0.02926,-0.30010,-0.66219,-3.57279,740.17407,764.56378,0.53959,12.42669,0.66219,-0.59610,-8.26701,8.24663,7.65053
38.85400,0.46859,0.34964,0.81047,-0.17241,0.09833,1.19751,-0.00581,0.00620,1.92283,0.02275,-0.01703,1.75916,0.54314,0.02926,-0.30010,-0.66219,-3.57279,740.17407,764.56378,0.53959,12.42734,0.66219,-0.59614,-8.26701,8.24663,7.65049
38.85499,0.46859,0.34964,0.81047,-0.18328,0.10086,1.18503,-0.00581,0.00620,1.92283,0.02275,-0.01703,1.75916,0.54314,0.02926,-0.30010,-0.66219,-3.57282,740.17681,764.56378,0.53953,12.42800,0.66219,-0.59604,-8.19777,8.24663,7.65058
38.85599,0.46859,0.34964,0.81047,-0.18328,0.10086,1.18503,-0.00581,0.00620,1.92283,0.02275,-0.01703,1.75916,0.54314,0.02926,-0.30010,-0.66219,-3.57282,740.17681,764.56378,0.53953,12.42868,0.66139,-0.59594,-8.19777,8.24663,7.65068
38.85699,0.46656,0.39163,0.75039,-0.19200,0.09507,1.16815,-0.00623,0.00777,1.92283,0.02053,-0.01625,1.77115,0.54194,0.04446,-0.30010,-0.66139,-3.59594,742.56799,764.56378,0.54169,12.42937,0.66139,-0.59584,-8.24498,8.29594,7.70009
38.85800,0.46656,0.39163,0.75039,-0.19200,0.09507,1.16815,-0.00623,0.00777,1.92283,0.02053,-0.01625,1.77115,0.54194,0.04446,-0.30010,-0.66139,-3.59594,742.56799,764.56378,0.54169,12.43007,0.66139,-0.59574,-8.24498,8.29594,7.70020
38.85900,0.46656,0.39163,0.75039,-0.18947,0.09076,1.14716,-0.00623,0.00777,1.92283,0.02053,-0.01625,1.77115,0.54194,0.04446,-0.30010,-0.66139,-3.59602,742.57653,764.56378,0.54164,12.43078,0.66139,-0.59567,-8.25823,8.29594,7.70027
38.86000,0.46656,0.39163,0.75039,-0.18947,0.09076,1.14716,-0.00623,0.00777,1.92283,0.02053,-0.01625,1.77115,0.54194,0.04446,-0.30010,-0.66139,-3.59602,742.57653,764.56378,0.54164,12.43150,0.66139,-0.59559,-8.25823,8.29594,7.70035
38.86100,0.46656,0.39163,0.75039,-0.18727,0.09463,1.12943,-0.00623,0.00777,1.92283,0.02053,-0.01625,1.77115,0.54194,0.04446,-0.30010,-0.66139,-3.59621,742.59527,764.56378,0.54159,12.43222,0.66139,-0.59528,-8.13896,8.29594,7.70066
38.86199,0.46656,0.39163,0.75039,-0.18727,0.09463,1.12943,-0.00623,0.00777,1.92283,0.02053,-0.01625,1.77115,0.54194,0.04446,-0.30010,-0.66139,-3.59621,742.59527,764.56378,0.54159,12.43296,0.66139,-0.59496,-8.13896,8.29594,7.70098
38.86299,0.46656,0.39163,0.75039,-0.19523,0.09741,1.11518,-0.00623,0.00777,1.92283,0.02053,-0.01625,1.77115,0.54194,0.04446,-0.30010,-0.66139,-3.59661,742.63665,764.56378,0.54157,12.43371,0.66139,-0.59442,-8.02363,8.29594,7.70152
38.86399,0.46656,0.39163,0.75039,-0.19523,0.09741,1.11518,-0.00623,0.00777,1.92283,0.02053,-0.01625,1.77115,0.54194,0.04446,-0.30010,-0.66139,-3.59661,742.63665,764.56378,0.54157,12.43447,0.66139,-0.59387,-8.02363,8.29594,7.70207
38.86500,0.46656,0.39163,0.75039,-0.20245,0.09153,1.09658,-0.00623,0.00777,1.92283,0.02053,-0.01625,1.77115,0.54194,0.04446,-0.30010,-0.66139,-3.59711,742.68804,764.56378,0.54155,12.43524,0.66139,-0.59335,-8.03541,8.29594,7.70259
38.86600,0.46656,0.39163,0.75039,-0.20245,0.09153,1.09658,-0.00623,0.00777,1.92283,0.02053,-0.01625,1.77115,0.54194,0.04446,-0.30010,-0.66139,-3.59711,742.68804,764.56378,0.54155,12.43602,0.66020,-0.59283,-8.03541,8.29594,7.70311
38.86700,0.46591,0.34929,0.69666,-0.19836,0.08556,1.07233,-0.00700,0.00627,1.92283,0.01815,-0.01550,1.78223,0.54014,0.06504,-0.30010,-0.66020,-3.62898,745.97106,761.32135,0.54452,12.43681,0.66020,-0.59222,-8.05614,8.36306,7.77083
38.86800,0.46591,0.34929,0.69666,-0.19836,0.08556,1.07233,-0.00700,0.00627,1.92283,0.01815,-0.01550,1.78223,0.54014,0.06504,-0.30010,-0.66020,-3.62898,745.97106,761.32135,0.54452,12.43761,0.66020,-0.59160,-8.05614,8.36306,7.77145
38.86899,0.46591,0.34929,0.69666,-0.19338,0.08767,1.05008,-0.00700,0.00627,1.92283,0.01815,-0.01550,1.78223,0.54014,0.06504,-0.30010,-0.66020,-3.62965,746.03973,761.32135,0.54452,12.43842,0.66020,-0.59079,-7.95450,8.36306,7.77227
38.86999,0.46591,0.34929,0.69666,-0.19338,0.08767,1.05008,-0.00700,0.00627,1.92283,0.01815,-0.01550,1.78223,0.54014,0.06504,-0.30010,-0.66020,-3.62965,746.03973,761.32135,0.54452,12.43924,0.66020,-0.58997,-7.95450,8.36306,7.77308
38.87099,0.46591,0.34929,0.69666,-0.19957,0.08966,1.03187,-0.00700,0.00627,1.92283,0.01815,-0.01550,1.78223,0.54014,0.06504,-0.30010,-0.66020,-3.63051,746.12829,761.32135,0.54453,12.44007,0.66020,-0.58894,-7.84926,8.36306,7.77411
38.87200,0.46591,0.34929,0.69666,-0.19957,0.08966,1.03187,-0.00700,0.00627,1.92283,0.01815,-0.01550,1.78223,0.54014,0.06504,-0.30010,-0.66020,-3.63051,746.12829,761.32135,0.54453,12.44091,0.66020,-0.58791,-7.84926,8.36306,7.77514
38.87300,0.46591,0.34929,0.69666,-0.20799,0.08205,1.01033,-0.00700,0.00627,1.92283,0.01815,-0.01550,1.78223,0.54014,0.06504,-0.30010,-0.66020,-3.63142,746.22204,761.32135,0.54454,12.44177,0.66020,-0.58699,-7.89995,8.36306,7.77606
38.87400,0.46591,0.34929,0.69666,-0.20799,0.08205,1.01033,-0.00700,0.00627,1.92283,0.01815,-0.01550,1.78223,0.54014,0.06504,-0.30010,-0.66020,-3.63142,746.22204,756.19030,0.54454,12.44264,0.66020,-0.58606,-7.89995,8.36306,7.77699
38.87500,0.46591,0.34929,0.69666,-0.20589,0.07181,0.98304,-0.00700,0.00627,1.92283,0.01815,-0.01550,1.78223,0.54014,0.06504,-0.30010,-0.66020,-3.63219,746.30133,761.32135,0.54454,12.44351,0.66020,-0.58534,-8.00001,8.36306,7.77772
38.87599,0.46591,0.34929,0.69666,-0.20589,0.07181,0.98304,-0.00700,0.00627,1.92283,0.01815,-0.01550,1.78223,0.54014,0.06504,-0.30010,-0.66020,-3.63219,746.30133,762.61505,0.54454,12.44440,0.66020,-0.58461,-8.00021,8.36306,7.77844
38.87699,0.49896,0.33873,0.64761,-0.20091,0.06934,0.95746,-0.00631,0.00549,1.92283,0.01573,-0.01481,1.79224,0.54014,0.06504,-0.30010,-0.66020,-3.63286,746.37023,762.61505,0.54452,12.44530,0.66020,-0.58382,-7.96968,8.36298,7.77915
38.87799,0.49896,0.33873,0.64761,-0.20091,0.06934,0.95746,-0.00631,0.00549,1.92283,0.01573,-0.01481,1.79224,0.54014,0.06504,-0.30010,-0.66020,-3.63286,746.37023,762.61505,0.54452,12.44620,0.66020,-0.58304,-7.96968,8.36298,7.77994
38.87900,0.49896,0.33873,0.64761,-0.20638,0.06924,0.93689,-0.00631,0.00549,1.92283,0.01573,-0.01481,1.79224,0.54014,0.06504,-0.30010,-0.66020,-3.63366,746.45251,762.61505,0.54452,12.44712,0.66020,-0.58211,-7.89884,8.36298,7.78087
38.88000,0.49896,0.33873,0.64761,-0.20638,0.06924,0.93689,-0.00631,0.00549,1.92283,0.01573,-0.01481,1.79224,0.54014,0.06504,-0.30010,-0.66020,-3.63366,746.45251,762.61505,0.54452,12.44805,0.66020,-0.58118,-7.89884,8.36298,7.78180
38.88100,0.49896,0.33873,0.64761,-0.21596,0.06132,0.91386,-0.00631,0.00549,1.92283,0.01573,-0.01481,1.79224,0.54014,0.06504,-0.30010,-0.66020,-3.63447,746.53509,759.38909,0.54451,12.44899,0.66020,-0.58039,-7.96632,8.36298,7.78259
38.88199,0.49896,0.33873,0.64761,-0.21596,0.06132,0.91386,-0.00631,0.00549,1.92283,0.01573,-0.01481,1.79224,0.54014,0.06504,-0.30010,-0.66020,-3.63447,746.53509,758.10632,0.54451,12.44994,0.66020,-0.57959,-7.96632,8.36298,7.78338
38.88299,0.49896,0.33873,0.64761,-0.21573,0.05054,0.88385,-0.00631,0.00549,1.92283,0.01573,-0.01481,1.79224,0.54014,0.06504,-0.30010,-0.66020,-3.63509,746.59936,759.38909,0.54449,12.45089,0.66020,-0.57905,-8.08908,8.36298,7.78393
38.88399,0.49896,0.33873,0.64761,-0.21573,0.05054,0.88385,-0.00631,0.00549,1.92283,0.01573,-0.01481,1.79224,0.54014,0.06504,-0.30010,-0.66020,-3.63509,746.59936,759.38909,0.54449,12.45186,0.66020,-0.57850,-8.08908,8.36298,7.78448
38.88499,0.49896,0.33873,0.64761,-0.21093,0.04770,0.85349,-0.00631,0.00549,1.92283,0.01573,-0.01481,1.79224,0.54014,0.06504,-0.30010,-0.66020,-3.63561,746.65246,762.61505,0.54446,12.45284,0.66020,-0.57794,-8.08352,8.36298,7.78504
38.88600,0.49896,0.33873,0.64761,-0.21093,0.04770,0.85349,-0.00631,0.00549,1.92283,0.01573,-0.01481,1.79224,0.54014,0.06504,-0.30010,-0.66020,-3.63561,746.65246,763.26348,0.54446,12.45382,0.65929,-0.57738,-8.08352,8.36298,7.78560
38.88700,0.61174,0.28696,0.60528,-0.21658,0.04857,0.82814,-0.00093,0.00247,1.92283,0.01327,-0.01436,1.80101,0.53879,0.07654,-0.30010,-0.65929,-3.65410,748.54864,769.80950,0.54612,12.45481,0.65929,-0.57662,-8.01891,8.40125,7.82463
38.88800,0.61174,0.28696,0.60528,-0.21658,0.04857,0.82814,-0.00093,0.00247,1.92283,0.01327,-0.01436,1.80101,0.53879,0.07654,-0.30010,-0.65929,-3.65410,748.54864,763.26348,0.54612,12.45582,0.65929,-0.57585,-8.01891,8.40125,7.82539
38.88899,0.61174,0.28696,0.60528,-0.22927,0.04139,0.80225,-0.00093,0.00247,1.92283,0.01327,-0.01436,1.80101,0.53879,0.07654,-0.30010,-0.65929,-3.65474,748.61419,765.86853,0.54610,12.45683,0.65929,-0.57524,-8.09808,8.40125,7.82600
38.88999,0.61174,0.28696,0.60528,-0.22927,0.04139,0.80225,-0.00093,0.00247,1.92283,0.01327,-0.01436,1.80101,0.53879,0.07654,-0.30010,-0.65929,-3.65474,748.61419,765.86853,0.54610,12.45785,0.65929,-0.57464,-8.09808,8.40125,7.82661
38.89099,0.61174,0.28696,0.60528,-0.23334,0.02875,0.77062,-0.00093,0.00247,1.92283,0.01327,-0.01436,1.80101,0.53879,0.07654,-0.30010,-0.65929,-3.65514,748.65478,769.80950,0.54604,12.45887,0.65929,-0.57440,-8.28047,8.40125,7.82685
38.89199,0.61174,0.28696,0.60528,-0.23334,0.02875,0.77062,-0.00093,0.00247,1.92283,0.01327,-0.01436,1.80101,0.53879,0.07654,-0.30010,-0.65929,-3.65514,748.65478,765.86853,0.54604,12.45991,0.65929,-0.57415,-8.28047,8.40125,7.82709
38.89300,0.61174,0.28696,0.60528,-0.22997,0.02256,0.73915,-0.00093,0.00247,1.92283,0.01327,-0.01436,1.80101,0.53879,0.07654,-0.30010,-0.65929,-3.65529,748.67016,765.86853,0.54597,12.46095,0.65929,-0.57407,-8.36141,8.40125,7.82717
38.89400,0.61174,0.28696,0.60528,-0.22997,0.02256,0.73915,-0.00093,0.00247,1.92283,0.01327,-0.01436,1.80101,0.53879,0.07654,-0.30010,-0.65929,-3.65529,748.67016,765.86853,0.54597,12.46201,0.65929,-0.57400,-8.36141,8.40125,7.82725
38.89500,0.61174,0.28696,0.60528,-0.23426,0.02189,0.71440,-0.00093,0.00247,1.92283,0.01327,-0.01436,1.80101,0.53879,0.07654,-0.30010,-0.65929,-3.65537,748.67877,765.86853,0.54588,12.46307,0.65929,-0.57389,-8.35056,8.40125,7.82735
38.89599,0.61174,0.28696,0.60528,-0.23426,0.02189,0.71440,-0.00093,0.00247,1.92283,0.01327,-0.01436,1.80101,0.53879,0.07654,-0.30010,-0.65929,-3.65537,748.67877,763.26348,0.54588,12.46414,0.65749,-0.57379,-8.35055,8.40125,7.82745
38.89699,0.56551,0.31957,0.56896,-0.24604,0.01519,0.69158,-0.00168,0.00279,1.92283,0.01059,-0.01416,1.80835,0.53609,0.10101,-0.30010,-0.65749,-3.69354,752.57781,763.26348,0.54940,12.46522,0.65749,-0.57368,-8.42600,8.48277,7.90909
38.89799,0.56551,0.31957,0.56896,-0.24604,0.01519,0.69158,-0.00168,0.00279,1.92283,0.01059,-0.01416,1.80835,0.53609,0.10101,-0.30010,-0.65749,-3.69354,752.57781,765.86853,0.54940,12.46631,0.65749,-0.57357,-8.42600,8.48277,7.90920
38.89899,0.56551,0.31957,0.56896,-0.25033,0.00228,0.66384,-0.00168,0.00279,1.92283,0.01059,-0.01416,1.80835,0.53609,0.10101,-0.30010,-0.65749,-3.69351,752.57440,765.86853,0.54930,12.46741,0.65749,-0.57375,-8.57519,8.48277,7.90902
38.90000,0.56551,0.31957,0.56896,-0.25033,0.00228,0.66384,-0.00168,0.00279,1.92283,0.01059,-0.01416,1.80835,0.53609,0.10101,-0.30010,-0.65749,-3.69351,752.57440,765.86853,0.54930,12.46851,0.65749,-0.57394,-8.57519,8.48277,7.90883
38.90100,0.56551,0.31957,0.56896,-0.24613,-0.00554,0.63523,-0.00168,0.00279,1.92283,0.01059,-0.01416,1.80835,0.53609,0.10101,-0.30010,-0.65749,-3.69330,752.55334,761.96765,0.54918,12.46962,0.65749,-0.57419,-8.61209,8.48277,7.90857
38.90200,0.56551,0.31957,0.56896,-0.24613,-0.00554,0.63523,-0.00168,0.00279,1.92283,0.01059,-0.01416,1.80835,0.53609,0.10101,-0.30010,-0.65749,-3.69330,752.55334,760.67620,0.54918,12.47074,0.65749,-0.57445,-8.61209,8.48277,7.90832
38.90299,0.56551,0.31957,0.56896,-0.24859,-0.00735,0.61297,-0.00168,0.00279,1.92283,0.01059,-0.01416,1.80835,0.53609,0.10101,-0.30010,-0.65749,-3.69313,752.53564,759.38909,0.54907,12.47186,0.65749,-0.57456,-8.53896,8.48277,7.90820
38.90399,0.56551,0.31957,0.56896,-0.24859,-0.00735,0.61297,-0.00168,0.00279,1.92283,0.01059,-0.01416,1.80835,0.53609,0.10101,-0.30010,-0.65749,-3.69313,752.53564,759.38909,0.54907,12.47299,0.65749,-0.57468,-8.53896,8.48277,7.90809
38.90499,0.56551,0.31957,0.56896,-0.26026,-0.01414,0.59403,-0.00168,0.00279,1.92283,0.01059,-0.01416,1.80835,0.53609,0.10101,-0.30010,-0.65749,-3.69301,752.52362,760.67620,0.54895,12.47413,0.65749,-0.57482,-8.55329,8.48277,7.90795
38.90599,0.56551,0.31957,0.56896,-0.26026,-0.01414,0.59403,-0.00168,0.00279,1.92283,0.01059,-0.01416,1.80835,0.53609,0.10101,-0.30010,-0.65749,-3.69301,752.52362,760.67620,0.54895,12.47527,0.65749,-0.57496,-8.55329,8.48277,7.90781
38.90700,0.54707,0.33861,0.53945,-0.26613,-0.02730,0.57121,-0.00300,0.00343,1.92283,0.00771,-0.01430,1.81441,0.53609,0.10101,-0.30010,-0.65749,-3.69279,752.50146,760.67620,0.54883,12.47641,0.65749,-0.57533,-8.66742,8.48282,7.90748
38.90800,0.54707,0.33861,0.53945,-0.26613,-0.02730,0.57121,-0.00300,0.00343,1.92283,0.00771,-0.01430,1.81441,0.53609,0.10101,-0.30010,-0.65749,-3.69279,752.50146,765.21557,0.54883,12.47756,0.65749,-0.57570,-8.66742,8.48282,7.90711
38.90900,0.54707,0.33861,0.53945,-0.26184,-0.03564,0.54679,-0.00300,0.00343,1.92283,0.00771,-0.01430,1.81441,0.53609,0.10101,-0.30010,-0.65749,-3.69243,752.46496,760.67620,0.54870,12.47871,0.65749,-0.57609,-8.68141,8.48282,7.90672
38.90999,0.54707,0.33861,0.53945,-0.26184,-0.03564,0.54679,-0.00300,0.00343,1.92283,0.00771,-0.01430,1.81441,0.53609,0.10101,-0.30010,-0.65749,-3.69243,752.46496,760.67620,0.54870,12.47987,0.65749,-0.57649,-8.68141,8.48282,7.90632
38.91099,0.54707,0.33861,0.53945,-0.26141,-0.03704,0.52736,-0.00300,0.00343,1.92283,0.00771,-0.01430,1.81441,0.53609,0.10101,-0.30010,-0.65749,-3.69217,752.43804,760.67620,0.54857,12.48104,0.65749,-0.57666,-8.56700,8.48282,7.90615
38.91199,0.54707,0.33861,0.53945,-0.26141,-0.03704,0.52736,-0.00300,0.00343,1.92283,0.00771,-0.01430,1.81441,0.53609,0.10101,-0.30010,-0.65749,-3.69217,752.43804,760.67620,0.54857,12.48220,0.65749,-0.57683,-8.56700,8.48282,7.90598
38.91299,0.54707,0.33861,0.53945,-0.26991,-0.04324,0.51016,-0.00300,0.00343,1.92283,0.00771,-0.01430,1.81441,0.53609,0.10101,-0.30010,-0.65749,-3.69206,752.42694,761.96765,0.54846,12.48338,0.65749,-0.57689,-8.51503,8.48282,7.90592
38.91400,0.54707,0.33861,0.53945,-0.26991,-0.04324,0.51016,-0.00300,0.00343,1.92283,0.00771,-0.01430,1.81441,0.53609,0.10101,-0.30010,-0.65749,-3.69206,752.42694,763.91308,0.54846,12.48455,0.65749,-0.57696,-8.51503,8.48282,7.90585
38.91500,0.54707,0.33861,0.53945,-0.27353,-0.05803,0.48741,-0.00300,0.00343,1.92283,0.00771,-0.01430,1.81441,0.53609,0.10101,-0.30010,-0.65749,-3.69194,752.41491,765.21557,0.54834,12.48574,0.65749,-0.57715,-8.57715,8.48282,7.90567
38.91600,0.54707,0.33861,0.53945,-0.27353,-0.05803,0.48741,-0.00300,0.00343,1.92283,0.00771,-0.01430,1.81441,0.53609,0.10101,-0.30010,-0.65749,-3.69194,752.41491,765.21557,0.54834,12.48692,0.65529,-0.57733,-8.57714,8.48282,7.90548
38.91699,0.68919,0.26398,0.51574,-0.26637,-0.06995,0.46090,0.00308,-0.00039,1.92283,0.00467,-0.01478,1.81942,0.53279,0.12656,-0.30010,-0.65529,-3.73225,756.51049,765.21557,0.55202,12.48811,0.65529,-0.57736,-8.58347,8.56933,7.99197
38.91799,0.68919,0.26398,0.51574,-0.26637,-0.06995,0.46090,0.00308,-0.00039,1.92283,0.00467,-0.01478,1.81942,0.53279,0.12656,-0.30010,-0.65529,-3.73225,756.51049,765.21557,0.55202,12.48931,0.65529,-0.57739,-8.58347,8.56933,7.99194
38.91899,0.68919,0.26398,0.51574,-0.26264,-0.07329,0.43917,0.00308,-0.00039,1.92283,0.00467,-0.01478,1.81942,0.53279,0.12656,-0.30010,-0.65529,-3.73233,756.51861,763.91308,0.55192,12.49051,0.65529,-0.57719,-8.46937,8.56933,7.99214
38.91999,0.68919,0.26398,0.51574,-0.26264,-0.07329,0.43917,0.00308,-0.00039,1.92283,0.00467,-0.01478,1.81942,0.53279,0.12656,-0.30010,-0.65529,-3.73233,756.51861,763.91308,0.55192,12.49171,0.65529,-0.57699,-8.46937,8.56933,7.99234
38.92100,0.68919,0.26398,0.51574,-0.27013,-0.07806,0.42212,0.00308,-0.00039,1.92283,0.00467,-0.01478,1.81942,0.53279,0.12656,-0.30010,-0.65529,-3.73259,756.54516,763.91308,0.55184,12.49291,0.65529,-0.57663,-8.38909,8.56933,7.99270
38.92200,0.68919,0.26398,0.51574,-0.27013,-0.07806,0.42212,0.00308,-0.00039,1.92283,0.00467,-0.01478,1.81942,0.53279,0.12656,-0.30010,-0.65529,-3.73259,756.54516,763.91308,0.55184,12.49411,0.65529,-0.57627,-8.38909,8.56933,7.99306
38.92300,0.68919,0.26398,0.51574,-0.27520,-0.09039,0.40174,0.00308,-0.00039,1.92283,0.00467,-0.01478,1.81942,0.53279,0.12656,-0.30010,-0.65529,-3.73290,756.57647,763.91308,0.55176,12.49532,0.65529,-0.57597,-8.41932,8.56933,7.99336
38.92399,0.68919,0.26398,0.51574,-0.27520,-0.09039,0.40174,0.00308,-0.00039,1.92283,0.00467,-0.01478,1.81942,0.53279,0.12656,-0.30010,-0.65529,-3.73290,756.57647,763.91308,0.55176,12.49653,0.65529,-0.57567,-8.41932,8.56933,7.99366
38.92499,0.68919,0.26398,0.51574,-0.26822,-0.10079,0.37747,0.00308,-0.00039,1.92283,0.00467,-0.01478,1.81942,0.53279,0.12656,-0.30010,-0.65529,-3.73318,756.60498,763.91308,0.55168,12.49773,0.65529,-0.57537,-8.41753,8.56933,7.99396
38.92599,0.68919,0.26398,0.51574,-0.26822,-0.10079,0.37747,0.00308,-0.00039,1.92283,0.00467,-0.01478,1.81942,0.53279,0.12656,-0.30010,-0.65529,-3.73318,756.60498,767.17767,0.55168,12.49895,0.65529,-0.57506,-8.41753,8.56933,7.99427
38.92699,0.60127,0.33410,0.49659,-0.26165,-0.10247,0.35697,0.00010,0.00140,1.92283,0.00166,-0.01567,1.82339,0.53279,0.12656,-0.30010,-0.65529,-3.73357,756.64434,763.91308,0.55161,12.50016,0.65529,-0.57450,-8.28876,8.56930,7.99479
38.92800,0.60127,0.33410,0.49659,-0.26165,-0.10247,0.35697,0.00010,0.00140,1.92283,0.00166,-0.01567,1.82339,0.53279,0.12656,-0.30010,-0.65529,-3.73357,756.64434,763.91308,0.55161,12.50137,0.65529,-0.57394,-8.28876,8.56930,7.99536
38.92900,0.60127,0.33410,0.49659,-0.26633,-0.10410,0.34128,0.00010,0.00140,1.92283,0.00166,-0.01567,1.82339,0.53279,0.12656,-0.30010,-0.65529,-3.73421,756.70922,763.91308,0.55157,12.50259,0.65529,-0.57313,-8.16484,8.56930,7.99616
38.93000,0.60127,0.33410,0.49659,-0.26633,-0.10410,0.34128,0.00010,0.00140,1.92283,0.00166,-0.01567,1.82339,0.53279,0.12656,-0.30010,-0.65529,-3.73421,756.70922,763.91308,0.55157,12.50381,0.65529,-0.57232,-8.16484,8.56930,7.99697
38.93099,0.60127,0.33410,0.49659,-0.27091,-0.11281,0.32307,0.00010,0.00140,1.92283,0.00166,-0.01567,1.82339,0.53279,0.12656,-0.30010,-0.65529,-3.73495,756.78497,767.17767,0.55153,12.50503,0.65529,-0.57153,-8.17283,8.56930,7.99777
38.93199,0.60127,0.33410,0.49659,-0.27091,-0.11281,0.32307,0.00010,0.00140,1.92283,0.00166,-0.01567,1.82339,0.53279,0.12656,-0.30010,-0.65529,-3.73495,756.78497,767.17767,0.55153,12.50625,0.65529,-0.57074,-8.17283,8.56930,7.99856
38.93299,0.60127,0.33410,0.49659,-0.26320,-0.12016,0.30118,0.00010,0.00140,1.92283,0.00166,-0.01567,1.82339,0.53279,0.12656,-0.30010,-0.65529,-3.73567,756.85717,767.17767,0.55149,12.50747,0.65529,-0.57000,-8.20302,8.56930,7.99929
38.93399,0.60127,0.33410,0.49659,-0.26320,-0.12016,0.30118,0.00010,0.00140,1.92283,0.00166,-0.01567,1.82339,0.53279,0.12656,-0.30010,-0.65529,-3.73567,756.85717,767.17767,0.55149,12.50869,0.65529,-0.56927,-8.20302,8.56930,8.00002
38.93500,0.60127,0.33410,0.49659,-0.25288,-0.11837,0.28324,0.00010,0.00140,1.92283,0.00166,-0.01567,1.82339,0.53279,0.12656,-0.30010,-0.65529,-3.73643,756.93475,767.17767,0.55145,12.50991,0.65529,-0.56836,-8.11531,8.56930,8.00093
38.93600,0.60127,0.33410,0.49659,-0.25288,-0.11837,0.28324,0.00010,0.00140,1.92283,0.00166,-0.01567,1.82339,0.53279,0.12656,-0.30010,-0.65529,-3.73643,756.93475,766.52252,0.55145,12.51114,0.65260,-0.56746,-8.11529,8.56930,8.00184
38.93700,0.70437,0.20881,0.48240,-0.25297,-0.11586,0.27096,0.00413,-0.00522,1.92283,-0.00125,-0.01678,1.82639,0.52874,0.15147,-0.30010,-0.65260,-3.77811,761.14422,766.52252,0.55522,12.51236,0.65260,-0.56618,-8.01822,8.65635,8.09017
38.93799,0.70437,0.20881,0.48240,-0.25297,-0.11586,0.27096,0.00413,-0.00522,1.92283,-0.00125,-0.01678,1.82639,0.52874,0.15147,-0.30010,-0.65260,-3.77811,761.14422,763.26348,0.55522,12.51359,0.65260,-0.56490,-8.01822,8.65635,8.09144
38.93899,0.70437,0.20881,0.48240,-0.25580,-0.12188,0.25632,0.00413,-0.00522,1.92283,-0.00125,-0.01678,1.82639,0.52874,0.15147,-0.30010,-0.65260,-3.77925,761.25946,766.52252,0.55522,12.51481,0.65260,-0.56373,-8.06949,8.65635,8.09262
38.93999,0.70437,0.20881,0.48240,-0.25580,-0.12188,0.25632,0.00413,-0.00522,1.92283,-0.00125,-0.01678,1.82639,0.52874,0.15147,-0.30010,-0.65260,-3.77925,761.25946,766.52252,0.55522,12.51604,0.65260,-0.56256,-8.06949,8.65635,8.09379
38.94100,0.70437,0.20881,0.48240,-0.24895,-0.12912,0.23611,0.00413,-0.00522,1.92283,-0.00125,-0.01678,1.82639,0.52874,0.15147,-0.30010,-0.65260,-3.78026,761.36077,766.52252,0.55521,12.51726,0.65260,-0.56158,-8.16624,8.65635,8.09477
38.94200,0.70437,0.20881,0.48240,-0.24895,-0.12912,0.23611,0.00413,-0.00522,1.92283,-0.00125,-0.01678,1.82639,0.52874,0.15147,-0.30010,-0.65260,-3.78026,761.36077,766.52252,0.55521,12.51848,0.65260,-0.56060,-8.16624,8.65635,8.09575
38.94300,0.70437,0.20881,0.48240,-0.23978,-0.12735,0.21744,0.00413,-0.00522,1.92283,-0.00125,-0.01678,1.82639,0.52874,0.15147,-0.30010,-0.65260,-3.78120,761.45568,767.17767,0.55518,12.51970,0.65260,-0.55956,-8.13729,8.65635,8.09679
38.94400,0.70437,0.20881,0.48240,-0.23978,-0.12735,0.21744,0.00413,-0.00522,1.92283,-0.00125,-0.01678,1.82639,0.52874,0.15147,-0.30010,-0.65260,-3.78120,761.45568,767.17767,0.55518,12.52092,0.65260,-0.55852,-8.13729,8.65635,8.09783
38.94499,0.70437,0.20881,0.48240,-0.24089,-0.12235,0.20385,0.00413,-0.00522,1.92283,-0.00125,-0.01678,1.82639,0.52874,0.15147,-0.30010,-0.65260,-3.78223,761.55969,763.26348,0.55517,12.52214,0.65260,-0.55735,-8.06964,8.65635,8.09900
38.94599,0.70437,0.20881,0.48240,-0.24089,-0.12235,0.20385,0.00413,-0.00522,1.92283,-0.00125,-0.01678,1.82639,0.52874,0.15147,-0.30010,-0.65260,-3.78223,761.55969,765.21557,0.55517,12.52335,0.64949,-0.55617,-8.06964,8.65635,8.10018
38.94699,0.79991,0.32471,0.47245,-0.24482,-0.12443,0.18867,0.00990,-0.00234,1.92283,-0.00397,-0.01794,1.82858,0.52409,0.17561,-0.30010,-0.64949,-3.82382,765.73492,767.83392,0.55891,12.52457,0.64949,-0.55494,-8.12502,8.74299,8.18805
38.94800,0.79991,0.32471,0.47245,-0.24482,-0.12443,0.18867,0.00990,-0.00234,1.92283,-0.00397,-0.01794,1.82858,0.52409,0.17561,-0.30010,-0.64949,-3.82382,765.73492,767.83392,0.55891,12.52578,0.64949,-0.55370,-8.12502,8.74299,8.18929
38.94900,0.79991,0.32471,0.47245,-0.23743,-0.12918,0.16820,0.00990,-0.00234,1.92283,-0.00397,-0.01794,1.82858,0.52409,0.17561,-0.30010,-0.64949,-3.82489,765.84210,770.47027,0.55890,12.52699,0.64949,-0.55264,-8.21427,8.74299,8.19034
38.95000,0.79991,0.32471,0.47245,-0.23743,-0.12918,0.16820,0.00990,-0.00234,1.92283,-0.00397,-0.01794,1.82858,0.52409,0.17561,-0.30010,-0.64949,-3.82489,765.84210,767.83392,0.55890,12.52820,0.64949,-0.55159,-8.21427,8.74299,8.19140
38.95100,0.79991,0.32471,0.47245,-0.22509,-0.12727,0.14914,0.00990,-0.00234,1.92283,-0.00397,-0.01794,1.82858,0.52409,0.17561,-0.30010,-0.64949,-3.82591,765.94464,767.83392,0.55889,12.52940,0.64949,-0.55045,-8.17551,8.74299,8.19254
38.95199,0.79991,0.32471,0.47245,-0.22509,-0.12727,0.14914,0.00990,-0.00234,1.92283,-0.00397,-0.01794,1.82858,0.52409,0.17561,-0.30010,-0.64949,-3.82591,765.94464,765.21557,0.55889,12.53060,0.64949,-0.54932,-8.17551,8.74299,8.19367
38.95299,0.79991,0.32471,0.47245,-0.22342,-0.12356,0.13582,0.00990,-0.00234,1.92283,-0.00397,-0.01794,1.82858,0.52409,0.17561,-0.30010,-0.64949,-3.82703,766.05688,774.45892,0.55888,12.53180,0.64949,-0.54805,-8.11010,8.74299,8.19494
38.95399,0.79991,0.32471,0.47245,-0.22342,-0.12356,0.13582,0.00990,-0.00234,1.92283,-0.00397,-0.01794,1.82858,0.52409,0.17561,-0.30010,-0.64949,-3.82703,766.05688,765.21557,0.55888,12.53299,0.64949,-0.54678,-8.11010,8.74299,8.19620
38.95500,0.79991,0.32471,0.47245,-0.22820,-0.12794,0.12163,0.00990,-0.00234,1.92283,-0.00397,-0.01794,1.82858,0.52409,0.17561,-0.30010,-0.64949,-3.82812,766.16564,765.21557,0.55888,12.53418,0.64949,-0.54572,-8.21197,8.74299,8.19727
38.95600,0.79991,0.32471,0.47245,-0.22820,-0.12794,0.12163,0.00990,-0.00234,1.92283,-0.00397,-0.01794,1.82858,0.52409,0.17561,-0.30010,-0.64949,-3.82812,766.16564,765.21557,0.55888,12.53537,0.64949,-0.54466,-8.21195,8.74299,8.19833
38.95700,0.66577,0.35761,0.46669,-0.22333,-0.13545,0.10147,0.00518,-0.00065,1.92283,-0.00653,-0.01907,1.82994,0.52409,0.17561,-0.30010,-0.64949,-3.82878,766.23175,765.21557,0.55883,12.53655,0.64949,-0.54397,-8.39946,8.74266,8.19868
38.95800,0.66577,0.35761,0.46669,-0.22333,-0.13545,0.10147,0.00518,-0.00065,1.92283,-0.00653,-0.01907,1.82994,0.52409,0.17561,-0.30010,-0.64949,-3.82878,766.23175,765.21557,0.55883,12.53773,0.64949,-0.54329,-8.39946,8.74266,8.19937
38.95899,0.66577,0.35761,0.46669,-0.21052,-0.13474,0.08110,0.00518,-0.00065,1.92283,-0.00653,-0.01907,1.82994,0.52409,0.17561,-0.30010,-0.64949,-3.82937,766.29022,763.91308,0.55878,12.53890,0.64949,-0.54272,-8.46035,8.74266,8.19993
38.95999,0.66577,0.35761,0.46669,-0.21052,-0.13474,0.08110,0.00518,-0.00065,1.92283,-0.00653,-0.01907,1.82994,0.52409,0.17561,-0.30010,-0.64949,-3.82937,766.29022,765.21557,0.55878,12.54008,0.64949,-0.54216,-8.46035,8.74266,8.20050
38.96099,0.66577,0.35761,0.46669,-0.20472,-0.12936,0.06561,0.00518,-0.00065,1.92283,-0.00653,-0.01907,1.82994,0.52409,0.17561,-0.30010,-0.64949,-3.82991,766.34484,763.91308,0.55873,12.54124,0.64949,-0.54155,-8.44055,8.74266,8.20110
38.96200,0.66577,0.35761,0.46669,-0.20472,-0.12936,0.06561,0.00518,-0.00065,1.92283,-0.00653,-0.01907,1.82994,0.52409,0.17561,-0.30010,-0.64949,-3.82991,766.34484,765.21557,0.55873,12.54241,0.64949,-0.54095,-8.44055,8.74266,8.20171
38.96300,0.66577,0.35761,0.46669,-0.20509,-0.13129,0.04923,0.00518,-0.00065,1.92283,-0.00653,-0.01907,1.82994,0.52409,0.17561,-0.30010,-0.64949,-3.83038,766.39190,765.86853,0.55867,12.54356,0.64949,-0.54055,-8.54129,8.74266,8.20211
38.96400,0.66577,0.35761,0.46669,-0.20509,-0.13129,0.04923,0.00518,-0.00065,1.92283,-0.00653,-0.01907,1.82994,0.52409,0.17561,-0.30010,-0.64949,-3.83038,766.39190,765.86853,0.55867,12.54472,0.64949,-0.54014,-8.54129,8.74266,8.20251
38.96500,0.66577,0.35761,0.46669,-0.19736,-0.13870,0.02655,0.00518,-0.00065,1.92283,-0.00653,-0.01907,1.82994,0.52409,0.17561,-0.30010,-0.64949,-3.83059,766.41223,763.91308,0.55858,12.54586,0.64949,-0.54011,-8.72645,8.74266,8.20254
38.96599,0.66577,0.35761,0.46669,-0.19736,-0.13870,0.02655,0.00518,-0.00065,1.92283,-0.00653,-0.01907,1.82994,0.52409,0.17561,-0.30010,-0.64949,-3.83059,766.41223,765.86853,0.55858,12.54701,0.64730,-0.54008,-8.72645,8.74266,8.20258
38.96699,0.81815,0.23572,0.46409,-0.18235,-0.14013,0.00349,0.01139,-0.00652,1.92283,-0.00882,-0.02028,1.83041,0.52080,0.19858,-0.30010,-0.64730,-3.86774,770.11993,765.86853,0.56189,12.54814,0.64730,-0.54001,-8.78924,8.82212,8.28210
38.96799,0.81815,0.23572,0.46409,-0.18235,-0.14013,0.00349,0.01139,-0.00652,1.92283,-0.00882,-0.02028,1.83041,0.52080,0.19858,-0.30010,-0.64730,-3.86774,770.11993,765.86853,0.56189,12.54927,0.64730,-0.53995,-8.78924,8.82212,8.28217
38.96900,0.81815,0.23572,0.46409,-0.17484,-0.13658,-0.01344,0.01139,-0.00652,1.92283,-0.00882,-0.02028,1.83041,0.52080,0.19858,-0.30010,-0.64730,-3.86783,770.12951,771.13220,0.56180,12.55040,0.64730,-0.53981,-8.75254,8.82212,8.28230
38.97000,0.81815,0.23572,0.46409,-0.17484,-0.13658,-0.01344,0.01139,-0.00652,1.92283,-0.00882,-0.02028,1.83041,0.52080,0.19858,-0.30010,-0.64730,-3.86783,770.12951,771.13220,0.56180,12.55152,0.64730,-0.53967,-8.75254,8.82212,8.28244
38.97100,0.81815,0.23572,0.46409,-0.17490,-0.13900,-0.02923,0.01139,-0.00652,1.92283,-0.00882,-0.02028,1.83041,0.52080,0.19858,-0.30010,-0.64730,-3.86790,770.13568,771.13220,0.56170,12.55264,0.64730,-0.53968,-8.82552,8.82212,8.28244
38.97200,0.81815,0.23572,0.46409,-0.17490,-0.13900,-0.02923,0.01139,-0.00652,1.92283,-0.00882,-0.02028,1.83041,0.52080,0.19858,-0.30010,-0.64730,-3.86790,770.13568,771.13220,0.56170,12.55375,0.64730,-0.53968,-8.82552,8.82212,8.28243
38.97299,0.81815,0.23572,0.46409,-0.16748,-0.14644,-0.05044,0.01139,-0.00652,1.92283,-0.00882,-0.02028,1.83041,0.52080,0.19858,-0.30010,-0.64730,-3.86773,770.11901,771.13220,0.56159,12.55485,0.64730,-0.54003,-8.99769,8.82212,8.28208
38.97399,0.81815,0.23572,0.46409,-0.16748,-0.14644,-0.05044,0.01139,-0.00652,1.92283,-0.00882,-0.02028,1.83041,0.52080,0.19858,-0.30010,-0.64730,-3.86773,770.11901,772.45947,0.56159,12.55595,0.64730,-0.54039,-8.99769,8.82212,8.28173
38.97499,0.81815,0.23572,0.46409,-0.15133,-0.14734,-0.07260,0.01139,-0.00652,1.92283,-0.00882,-0.02028,1.83041,0.52080,0.19858,-0.30010,-0.64730,-3.86734,770.07995,771.13220,0.56145,12.55704,0.64730,-0.54087,-9.06639,8.82212,8.28124
38.97600,0.81815,0.23572,0.46409,-0.15133,-0.14734,-0.07260,0.01139,-0.00652,1.92283,-0.00882,-0.02028,1.83041,0.52080,0.19858,-0.30010,-0.64730,-3.86734,770.07995,771.13220,0.56145,12.55812,0.64359,-0.54136,-9.06659,8.82212,8.28075
38.97700,0.72568,0.30211,0.46794,-0.14144,-0.14135,-0.08902,0.00832,-0.00575,1.92283,-0.01069,-0.02157,1.82987,0.51524,0.21634,-0.30010,-0.64359,-3.89950,773.27514,770.47027,0.56429,12.55920,0.64359,-0.54163,-9.02775,8.89174,8.35010
38.97800,0.72568,0.30211,0.46794,-0.14144,-0.14135,-0.08902,0.00832,-0.00575,1.92283,-0.01069,-0.02157,1.82987,0.51524,0.21634,-0.30010,-0.64359,-3.89950,773.27514,770.47027,0.56429,12.56027,0.64359,-0.54191,-9.02775,8.89174,8.34983
38.97900,0.72568,0.30211,0.46794,-0.14042,-0.13976,-0.10419,0.00832,-0.00575,1.92283,-0.01069,-0.02157,1.82987,0.51524,0.21634,-0.30010,-0.64359,-3.89920,773.24603,770.47027,0.56417,12.56134,0.64359,-0.54226,-9.06964,8.89174,8.34947
38.97999,0.72568,0.30211,0.46794,-0.14042,-0.13976,-0.10419,0.00832,-0.00575,1.92283,-0.01069,-0.02157,1.82987,0.51524,0.21634,-0.30010,-0.64359,-3.89920,773.24603,770.47027,0.56417,12.56239,0.64359,-0.54262,-9.06964,8.89174,8.34912
38.98099,0.72568,0.30211,0.46794,-0.13400,-0.14380,-0.12584,0.00832,-0.00575,1.92283,-0.01069,-0.02157,1.82987,0.51524,0.21634,-0.30010,-0.64359,-3.89875,773.20172,767.17767,0.56403,12.56345,0.64359,-0.54322,-9.19225,8.89174,8.34852
38.98199,0.72568,0.30211,0.46794,-0.13400,-0.14380,-0.12584,0.00832,-0.00575,1.92283,-0.01069,-0.02157,1.82987,0.51524,0.21634,-0.30010,-0.64359,-3.89875,773.20172,770.47027,0.56403,12.56449,0.64359,-0.54382,-9.19225,8.89174,8.34792
38.98300,0.72568,0.30211,0.46794,-0.11891,-0.14308,-0.15062,0.00832,-0.00575,1.92283,-0.01069,-0.02157,1.82987,0.51524,0.21634,-0.30010,-0.64359,-3.89819,773.14550,770.47027,0.56389,12.56552,0.64359,-0.54443,-9.19825,8.89174,8.34730
38.98400,0.72568,0.30211,0.46794,-0.11891,-0.14308,-0.15062,0.00832,-0.00575,1.92283,-0.01069,-0.02157,1.82987,0.51524,0.21634,-0.30010,-0.64359,-3.89819,773.14550,770.47027,0.56389,12.56655,0.64359,-0.54505,-9.19825,8.89174,8.34669
38.98500,0.72568,0.30211,0.46794,-0.10920,-0.13682,-0.17054,0.00832,-0.00575,1.92283,-0.01069,-0.02157,1.82987,0.51524,0.21634,-0.30010,-0.64359,-3.89772,773.09899,770.47027,0.56376,12.56757,0.64359,-0.54544,-9.08732,8.89174,8.34630
38.98600,0.72568,0.30211,0.46794,-0.10920,-0.13682,-0.17054,0.00832,-0.00575,1.92283,-0.01069,-0.02157,1.82987,0.51524,0.21634,-0.30010,-0.64359,-3.89772,773.09899,770.47027,0.56376,12.56859,0.64359,-0.54583,-9.08732,8.89174,8.34591
38.98699,0.69886,0.36173,0.47660,-0.10889,-0.13583,-0.18750,0.00588,-0.00346,1.92283,-0.01210,-0.02285,1.82837,0.51524,0.21634,-0.30010,-0.64359,-3.89726,773.05310,770.47027,0.56362,12.56960,0.64359,-0.54618,-9.06842,8.89149,8.34531
38.98799,0.69886,0.36173,0.47660,-0.10889,-0.13583,-0.18750,0.00588,-0.00346,1.92283,-0.01210,-0.02285,1.82837,0.51524,0.21634,-0.30010,-0.64359,-3.89726,773.05310,770.47027,0.56362,12.57060,0.64359,-0.54654,-9.06842,8.89149,8.34495
38.98899,0.69886,0.36173,0.47660,-0.10396,-0.14096,-0.20826,0.00588,-0.00346,1.92283,-0.01210,-0.02285,1.82837,0.51524,0.21634,-0.30010,-0.64359,-3.89684,773.01165,777.81445,0.56349,12.57159,0.64359,-0.54708,-9.16133,8.89149,8.34441
38.99000,0.69886,0.36173,0.47660,-0.10396,-0.14096,-0.20826,0.00588,-0.00346,1.92283,-0.01210,-0.02285,1.82837,0.51524,0.21634,-0.30010,-0.64359,-3.89684,773.01165,777.81445,0.56349,12.57257,0.64359,-0.54762,-9.16133,8.89149,8.34387
38.99100,0.69886,0.36173,0.47660,-0.08896,-0.14050,-0.23059,0.00588,-0.00346,1.92283,-0.01210,-0.02285,1.82837,0.51524,0.21634,-0.30010,-0.64359,-3.89633,772.96148,779.16485,0.56336,12.57355,0.64359,-0.54816,-9.16350,8.89149,8.34333
38.99200,0.69886,0.36173,0.47660,-0.08896,-0.14050,-0.23059,0.00588,-0.00346,1.92283,-0.01210,-0.02285,1.82837,0.51524,0.21634,-0.30010,-0.64359,-3.89633,772.96148,779.16485,0.56336,12.57453,0.64359,-0.54870,-9.16350,8.89149,8.34279
38.99300,0.69886,0.36173,0.47660,-0.07676,-0.13215,-0.24796,0.00588,-0.00346,1.92283,-0.01210,-0.02285,1.82837,0.51524,0.21634,-0.30010,-0.64359,-3.89594,772.92224,779.16485,0.56324,12.57549,0.64359,-0.54901,-9.04312,8.89149,8.34248
38.99399,0.69886,0.36173,0.47660,-0.07676,-0.13215,-0.24796,0.00588,-0.00346,1.92283,-0.01210,-0.02285,1.82837,0.51524,0.21634,-0.30010,-0.64359,-3.89594,772.92224,779.16485,0.56324,12.57645,0.64359,-0.54931,-9.04312,8.89149,8.34218
38.99499,0.69886,0.36173,0.47660,-0.07320,-0.12740,-0.26338,0.00588,-0.00346,1.92283,-0.01210,-0.02285,1.82837,0.51524,0.21634,-0.30010,-0.64359,-3.89570,772.89855,779.16485,0.56313,12.57740,0.64359,-0.54952,-8.99536,8.89149,8.34197
38.99599,0.69886,0.36173,0.47660,-0.07320,-0.12740,-0.26338,0.00588,-0.00346,1.92283,-0.01210,-0.02285,1.82837,0.51524,0.21634,-0.30010,-0.64359,-3.89570,772.89855,779.16485,0.56313,12.57834,0.63940,-0.54973,-8.99534,8.89149,8.34176
38.99700,0.89075,0.26005,0.48816,-0.06656,-0.12989,-0.28459,0.01427,-0.00830,1.92283,-0.01313,-0.02406,1.82586,0.50894,0.24088,-0.30010,-0.63940,-3.93922,777.20379,772.45947,0.56699,12.57928,0.63940,-0.54987,-9.05523,8.98504,8.43516
38.99800,0.89075,0.26005,0.48816,-0.06656,-0.12989,-0.28459,0.01427,-0.00830,1.92283,-0.01313,-0.02406,1.82586,0.50894,0.24088,-0.30010,-0.63940,-3.93922,777.20379,772.45947,0.56699,12.58021,0.63940,-0.55001,-9.05523,8.98504,8.43502
38.99900,0.89075,0.26005,0.48816,-0.05219,-0.12918,-0.30910,0.01427,-0.00830,1.92283,-0.01313,-0.02406,1.82586,0.50894,0.24088,-0.30010,-0.63940,-3.93910,777.19232,785.29998,0.56690,12.58114,0.63940,-0.55012,-9.03990,8.98504,8.43491
39.00000,0.89075,0.26005,0.48816,-0.05219,-0.12918,-0.30910,0.01427,-0.00830,1.92283,-0.01313,-0.02406,1.82586,0.50894,0.24088,-0.30010,-0.63940,-3.93910,777.19232,785.29998,0.56690,12.58206,0.63940,-0.55023,-9.03990,8.98504,8.43480
39.00099,0.89075,0.26005,0.48816,-0.04297,-0.12154,-0.32830,0.01427,-0.00830,1.92283,-0.01313,-0.02406,1.82586,0.50894,0.24088,-0.30010,-0.63940,-3.93911,777.19317,772.45947,0.56682,12.58297,0.63940,-0.55010,-8.92117,8.98504,8.43493
39.00199,0.89075,0.26005,0.48816,-0.04297,-0.12154,-0.32830,0.01427,-0.00830,1.92283,-0.01313,-0.02406,1.82586,0.50894,0.24088,-0.30010,-0.63940,-3.93911,777.19317,785.29998,0.56682,12.58387,0.63940,-0.54997,-8.92117,8.98504,8.43506
39.00299,0.89075,0.26005,0.48816,-0.04382,-0.11683,-0.34315,0.01427,-0.00830,1.92283,-0.01313,-0.02406,1.82586,0.50894,0.24088,-0.30010,-0.63940,-3.93926,777.20812,772.45947,0.56675,12.58477,0.63940,-0.54977,-8.88661,8.98504,8.43526
39.00400,0.89075,0.26005,0.48816,-0.04382,-0.11683,-0.34315,0.01427,-0.00830,1.92283,-0.01313,-0.02406,1.82586,0.50894,0.24088,-0.30010,-0.63940,-3.93926,777.20812,781.19921,0.56675,12.58566,0.63940,-0.54958,-8.88661,8.98504,8.43545
39.00500,0.89075,0.26005,0.48816,-0.04028,-0.11837,-0.36142,0.01427,-0.00830,1.92283,-0.01313,-0.02406,1.82586,0.50894,0.24088,-0.30010,-0.63940,-3.93936,777.21807,785.29998,0.56668,12.58655,0.63940,-0.54956,-8.97502,8.98504,8.43547
39.00600,0.89075,0.26005,0.48816,-0.04028,-0.11837,-0.36142,0.01427,-0.00830,1.92283,-0.01313,-0.02406,1.82586,0.50894,0.24088,-0.30010,-0.63940,-3.93936,777.21807,781.19921,0.56668,12.58742,0.63499,-0.54954,-8.97502,8.98504,8.43549
39.00699,0.88250,0.27296,0.50588,-0.02461,-0.11563,-0.38219,0.01688,-0.00982,1.92283,-0.01372,-0.02515,1.82238,0.50234,0.26099,-0.30010,-0.63499,-3.97710,780.93145,781.19921,0.57000,12.58829,0.63499,-0.54939,-8.99385,9.06567,8.51627
39.00799,0.88250,0.27296,0.50588,-0.02461,-0.11563,-0.38219,0.01688,-0.00982,1.92283,-0.01372,-0.02515,1.82238,0.50234,0.26099,-0.30010,-0.63499,-3.97710,780.93145,781.19921,0.57000,12.58916,0.63499,-0.54925,-8.99385,9.06567,8.51642
39.00899,0.88250,0.27296,0.50588,-0.00995,-0.10491,-0.39776,0.01688,-0.00982,1.92283,-0.01372,-0.02515,1.82238,0.50234,0.26099,-0.30010,-0.63499,-3.97734,780.95495,785.29998,0.56995,12.59002,0.63499,-0.54888,-8.88123,9.06567,8.51679
39.00999,0.88250,0.27296,0.50588,-0.00995,-0.10491,-0.39776,0.01688,-0.00982,1.92283,-0.01372,-0.02515,1.82238,0.50234,0.26099,-0.30010,-0.63499,-3.97734,780.95495,781.19921,0.56995,12.59087,0.63499,-0.54851,-8.88123,9.06567,8.51715
39.01100,0.88250,0.27296,0.50588,-0.00575,-0.09758,-0.40878,0.01688,-0.00982,1.92283,-0.01372,-0.02515,1.82238,0.50234,0.26099,-0.30010,-0.63499,-3.97774,780.99487,779.84179,0.56991,12.59171,0.63499,-0.54801,-8.81532,9.06567,8.51766
39.01200,0.88250,0.27296,0.50588,-0.00575,-0.09758,-0.40878,0.01688,-0.00982,1.92283,-0.01372,-0.02515,1.82238,0.50234,0.26099,-0.30010,-0.63499,-3.97774,780.99487,779.84179,0.56991,12.59255,0.63499,-0.54751,-8.81532,9.06567,8.51816
39.01300,0.88250,0.27296,0.50588,-0.00155,-0.09912,-0.42282,0.01688,-0.00982,1.92283,-0.01372,-0.02515,1.82238,0.50234,0.26099,-0.30010,-0.63499,-3.97816,781.03607,779.84179,0.56987,12.59338,0.63499,-0.54711,-8.86684,9.06567,8.51855
39.01399,0.88250,0.27296,0.50588,-0.00155,-0.09912,-0.42282,0.01688,-0.00982,1.92283,-0.01372,-0.02515,1.82238,0.50234,0.26099,-0.30010,-0.63499,-3.97816,781.03607,779.84179,0.56987,12.59420,0.63499,-0.54671,-8.86684,9.06567,8.51895
39.01499,0.88250,0.27296,0.50588,0.01100,-0.09928,-0.43947,0.01688,-0.00982,1.92283,-0.01372,-0.02515,1.82238,0.50234,0.26099,-0.30010,-0.63499,-3.97852,781.07147,779.84179,0.56983,12.59502,0.63499,-0.54634,-8.87821,9.06567,8.51933
39.01599,0.88250,0.27296,0.50588,0.01100,-0.09928,-0.43947,0.01688,-0.00982,1.92283,-0.01372,-0.02515,1.82238,0.50234,0.26099,-0.30010,-0.63499,-3.97852,781.07147,772.45947,0.56983,12.59583,0.63499,-0.54597,-8.87821,9.06567,8.51970
39.01699,0.74867,0.36194,0.52861,0.02218,-0.09208,-0.45142,0.01206,-0.00676,1.92283,-0.01384,-0.02603,1.81808,0.50234,0.26099,-0.30010,-0.63499,-3.97855,781.07464,772.45947,0.56976,12.59664,0.63499,-0.54541,-8.78604,9.06481,8.51939
39.01800,0.74867,0.36194,0.52861,0.02218,-0.09208,-0.45142,0.01206,-0.00676,1.92283,-0.01384,-0.02603,1.81808,0.50234,0.26099,-0.30010,-0.63499,-3.97855,781.07464,771.13220,0.56976,12.59743,0.63499,-0.54485,-8.78604,9.06481,8.51995
39.01900,0.74867,0.36194,0.52861,0.02457,-0.08610,-0.45946,0.01206,-0.00676,1.92283,-0.01384,-0.02603,1.81808,0.50234,0.26099,-0.30010,-0.63499,-3.97912,781.13000,772.45947,0.56974,12.59823,0.63499,-0.54420,-8.73966,9.06481,8.52060
39.02000,0.74867,0.36194,0.52861,0.02457,-0.08610,-0.45946,0.01206,-0.00676,1.92283,-0.01384,-0.02603,1.81808,0.50234,0.26099,-0.30010,-0.63499,-3.97912,781.13000,772.45947,0.56974,12.59901,0.63499,-0.54355,-8.73966,9.06481,8.52125
39.02099,0.74867,0.36194,0.52861,0.02857,-0.08592,-0.47143,0.01206,-0.00676,1.92283,-0.01384,-0.02603,1.81808,0.50234,0.26099,-0.30010,-0.63499,-3.97967,781.18377,788.05786,0.56971,12.59979,0.63499,-0.54303,-8.80291,9.06481,8.52178
39.02199,0.74867,0.36194,0.52861,0.02857,-0.08592,-0.47143,0.01206,-0.00676,1.92283,-0.01384,-0.02603,1.81808,0.50234,0.26099,-0.30010,-0.63499,-3.97967,781.18377,792.23114,0.56971,12.60057,0.63499,-0.54250,-8.80291,9.06481,8.52230
39.02299,0.74867,0.36194,0.52861,0.04188,-0.08243,-0.48699,0.01206,-0.00676,1.92283,-0.01384,-0.02603,1.81808,0.50234,0.26099,-0.30010,-0.63499,-3.98014,781.23022,792.23114,0.56969,12.60133,0.63499,-0.54201,-8.82059,9.06481,8.52279
39.02399,0.74867,0.36194,0.52861,0.04188,-0.08243,-0.48699,0.01206,-0.00676,1.92283,-0.01384,-0.02603,1.81808,0.50234,0.26099,-0.30010,-0.63499,-3.98014,781.23022,792.23114,0.56969,12.60209,0.63499,-0.54152,-8.82059,9.06481,8.52328
39.02500,0.74867,0.36194,0.52861,0.05395,-0.07168,-0.49799,0.01206,-0.00676,1.92283,-0.01384,-0.02603,1.81808,0.50234,0.26099,-0.30010,-0.63499,-3.98069,781.28411,788.05786,0.56967,12.60285,0.63499,-0.54084,-8.72073,9.06481,8.52397
39.02600,0.74867,0.36194,0.52861,0.05395,-0.07168,-0.49799,0.01206,-0.00676,1.92283,-0.01384,-0.02603,1.81808,0.50234,0.26099,-0.30010,-0.63499,-3.98069,781.28411,788.05786,0.56967,12.60360,0.63029,-0.54015,-8.72073,9.06481,8.52465
39.02700,0.98768,0.39415,0.55326,0.05645,-0.06435,-0.50373,0.02324,-0.00439,1.92283,-0.01354,-0.02672,1.81321,0.49529,0.27541,-0.30010,-0.63029,-4.01230,784.38031,788.05786,0.57243,12.60434,0.63029,-0.53922,-8.66830,9.13089,8.59166
39.02799,0.98768,0.39415,0.55326,0.05645,-0.06435,-0.50373,0.02324,-0.00439,1.92283,-0.01354,-0.02672,1.81321,0.49529,0.27541,-0.30010,-0.63029,-4.01230,784.38031,783.24420,0.57243,12.60508,0.63029,-0.53830,-8.66830,9.13089,8.59258
39.02899,0.98768,0.39415,0.55326,0.05955,-0.06593,-0.51129,0.02324,-0.00439,1.92283,-0.01354,-0.02672,1.81321,0.49529,0.27541,-0.30010,-0.63029,-4.01309,784.45745,788.05786,0.57244,12.60581,0.63029,-0.53753,-8.74815,9.13089,8.59335
39.02999,0.98768,0.39415,0.55326,0.05955,-0.06593,-0.51129,0.02324,-0.00439,1.92283,-0.01354,-0.02672,1.81321,0.49529,0.27541,-0.30010,-0.63029,-4.01309,784.45745,788.75036,0.57244,12.60654,0.63029,-0.53677,-8.74815,9.13089,8.59412
39.03099,0.98768,0.39415,0.55326,0.07179,-0.06569,-0.52108,0.02324,-0.00439,1.92283,-0.01354,-0.02672,1.81321,0.49529,0.27541,-0.30010,-0.63029,-4.01376,784.52239,788.75036,0.57243,12.60725,0.63029,-0.53611,-8.80232,9.13089,8.59477
39.03200,0.98768,0.39415,0.55326,0.07179,-0.06569,-0.52108,0.02324,-0.00439,1.92283,-0.01354,-0.02672,1.81321,0.49529,0.27541,-0.30010,-0.63029,-4.01376,784.52239,783.24420,0.57243,12.60797,0.63029,-0.53545,-8.80232,9.13089,8.59543
39.03300,0.98768,0.39415,0.55326,0.08329,-0.05670,-0.52628,0.02324,-0.00439,1.92283,-0.01354,-0.02672,1.81321,0.49529,0.27541,-0.30010,-0.63029,-4.01444,784.58905,777.14105,0.57243,12.60868,0.63029,-0.53465,-8.72944,9.13089,8.59623
39.03400,0.98768,0.39415,0.55326,0.08329,-0.05670,-0.52628,0.02324,-0.00439,1.92283,-0.01354,-0.02672,1.81321,0.49529,0.27541,-0.30010,-0.63029,-4.01444,784.58905,777.14105,0.57243,12.60938,0.63029,-0.53385,-8.72944,9.13089,8.59704
39.03499,0.98768,0.39415,0.55326,0.08549,-0.04826,-0.52741,0.02324,-0.00439,1.92283,-0.01354,-0.02672,1.81321,0.49529,0.27541,-0.30010,-0.63029,-4.01525,784.66833,777.14105,0.57244,12.61007,0.63029,-0.53291,-8.66255,9.13089,8.59797
39.03599,0.98768,0.39415,0.55326,0.08549,-0.04826,-0.52741,0.02324,-0.00439,1.92283,-0.01354,-0.02672,1.81321,0.49529,0.27541,-0.30010,-0.63029,-4.01525,784.66833,783.24420,0.57244,12.61077,0.62690,-0.53197,-8.66255,9.13089,8.59891
39.03699,0.87410,0.24970,0.57737,0.08842,-0.04705,-0.53298,0.02195,-0.01076,1.92283,-0.01286,-0.02720,1.80796,0.49019,0.29686,-0.30010,-0.62690,-4.05346,788.39355,783.24420,0.57578,12.61145,0.62690,-0.53095,-8.69947,9.21076,8.67980
39.03799,0.87410,0.24970,0.57737,0.08842,-0.04705,-0.53298,0.02195,-0.01076,1.92283,-0.01286,-0.02720,1.80796,0.49019,0.29686,-0.30010,-0.62690,-4.05346,788.39355,783.24420,0.57578,12.61213,0.62690,-0.52993,-8.69947,9.21076,8.68082
39.03900,0.87410,0.24970,0.57737,0.10098,-0.04424,-0.54394,0.02195,-0.01076,1.92283,-0.01286,-0.02720,1.80796,0.49019,0.29686,-0.30010,-0.62690,-4.05441,788.48504,787.36657,0.57580,12.61280,0.62690,-0.52894,-8.71420,9.21076,8.68182
39.04000,0.87410,0.24970,0.57737,0.10098,-0.04424,-0.54394,0.02195,-0.01076,1.92283,-0.01286,-0.02720,1.80796,0.49019,0.29686,-0.30010,-0.62690,-4.05441,788.48504,787.36657,0.57580,12.61347,0.62690,-0.52794,-8.71420,9.21076,8.68281
39.04100,0.87410,0.24970,0.57737,0.11269,-0.03345,-0.55173,0.02195,-0.01076,1.92283,-0.01286,-0.02720,1.80796,0.49019,0.29686,-0.30010,-0.62690,-4.05542,788.58392,787.36657,0.57583,12.61413,0.62690,-0.52676,-8.61870,9.21076,8.68399
39.04199,0.87410,0.24970,0.57737,0.11269,-0.03345,-0.55173,0.02195,-0.01076,1.92283,-0.01286,-0.02720,1.80796,0.49019,0.29686,-0.30010,-0.62690,-4.05542,788.58392,787.36657,0.57583,12.61478,0.62690,-0.52557,-8.61870,9.21076,8.68518
39.04299,0.87410,0.24970,0.57737,0.11313,-0.02341,-0.55398,0.02195,-0.01076,1.92283,-0.01286,-0.02720,1.80796,0.49019,0.29686,-0.30010,-0.62690,-4.05659,788.69708,787.36657,0.57588,12.61543,0.62690,-0.52427,-8.55651,9.21076,8.68649
39.04399,0.87410,0.24970,0.57737,0.11313,-0.02341,-0.55398,0.02195,-0.01076,1.92283,-0.01286,-0.02720,1.80796,0.49019,0.29686,-0.30010,-0.62690,-4.05659,788.69708,787.36657,0.57588,12.61608,0.62690,-0.52296,-8.55651,9.21076,8.68780
39.04499,0.87410,0.24970,0.57737,0.11140,-0.02040,-0.55772,0.02195,-0.01076,1.92283,-0.01286,-0.02720,1.80796,0.49019,0.29686,-0.30010,-0.62690,-4.05775,788.80987,787.36657,0.57592,12.61672,0.62690,-0.52178,-8.62288,9.21076,8.68897
39.04600,0.87410,0.24970,0.57737,0.11140,-0.02040,-0.55772,0.02195,-0.01076,1.92283,-0.01286,-0.02720,1.80796,0.49019,0.29686,-0.30010,-0.62690,-4.05775,788.80987,787.36657,0.57592,12.61735,0.62690,-0.52061,-8.62288,9.21076,8.69015
39.04700,0.75541,0.35009,0.60586,0.11799,-0.01593,-0.56468,0.01697,-0.00797,1.92283,-0.01184,-0.02740,1.80245,0.49019,0.29686,-0.30010,-0.62690,-4.05828,788.86126,787.36657,0.57591,12.61798,0.62690,-0.51951,-8.66399,9.20962,8.69010
39.04800,0.75541,0.35009,0.60586,0.11799,-0.01593,-0.56468,0.01697,-0.00797,1.92283,-0.01184,-0.02740,1.80245,0.49019,0.29686,-0.30010,-0.62690,-4.05828,788.86126,787.36657,0.57591,12.61860,0.62690,-0.51842,-8.66399,9.20962,8.69120
39.04899,0.75541,0.35009,0.60586,0.12542,-0.00409,-0.56854,0.01697,-0.00797,1.92283,-0.01184,-0.02740,1.80245,0.49019,0.29686,-0.30010,-0.62690,-4.05938,788.96832,787.36657,0.57595,12.61921,0.62690,-0.51716,-8.57628,9.20962,8.69246
39.04999,0.75541,0.35009,0.60586,0.12542,-0.00409,-0.56854,0.01697,-0.00797,1.92283,-0.01184,-0.02740,1.80245,0.49019,0.29686,-0.30010,-0.62690,-4.05938,788.96832,787.36657,0.57595,12.61982,0.62690,-0.51589,-8.57628,9.20962,8.69373
39.05099,0.75541,0.35009,0.60586,0.12509,0.00622,-0.56891,0.01697,-0.00797,1.92283,-0.01184,-0.02740,1.80245,0.49019,0.29686,-0.30010,-0.62690,-4.06062,789.08941,793.63208,0.57601,12.62042,0.62690,-0.51449,-8.50807,9.20962,8.69513
39.05199,0.75541,0.35009,0.60586,0.12509,0.00622,-0.56891,0.01697,-0.00797,1.92283,-0.01184,-0.02740,1.80245,0.49019,0.29686,-0.30010,-0.62690,-4.06062,789.08941,793.63208,0.57601,12.62102,0.62690,-0.51308,-8.50807,9.20962,8.69653
39.05300,0.75541,0.35009,0.60586,0.12547,0.00886,-0.57306,0.01697,-0.00797,1.92283,-0.01184,-0.02740,1.80245,0.49019,0.29686,-0.30010,-0.62690,-4.06189,789.21215,787.36657,0.57607,12.62161,0.62690,-0.51178,-8.55899,9.20962,8.69784
39.05400,0.75541,0.35009,0.60586,0.12547,0.00886,-0.57306,0.01697,-0.00797,1.92283,-0.01184,-0.02740,1.80245,0.49019,0.29686,-0.30010,-0.62690,-4.06189,789.21215,787.36657,0.57607,12.62220,0.62690,-0.51048,-8.55899,9.20962,8.69914
39.05500,0.75541,0.35009,0.60586,0.13494,0.01280,-0.58130,0.01697,-0.00797,1.92283,-0.01184,-0.02740,1.80245,0.49019,0.29686,-0.30010,-0.62690,-4.06307,789.32702,787.36657,0.57612,12.62278,0.62690,-0.50925,-8.59441,9.20962,8.70037
39.05599,0.75541,0.35009,0.60586,0.13494,0.01280,-0.58130,0.01697,-0.00797,1.92283,-0.01184,-0.02740,1.80245,0.49019,0.29686,-0.30010,-0.62690,-4.06307,789.32702,787.36657,0.57612,12.62336,0.62159,-0.50802,-8.59442,9.20962,8.70160
39.05699,0.93306,0.27030,0.63328,0.14417,0.02433,-0.58566,0.02471,-0.01172,1.92283,-0.01061,-0.02728,1.79671,0.48224,0.31251,-0.30010,-0.62159,-4.09827,792.73889,785.98767,0.57918,12.62393,0.62159,-0.50652,-8.53409,9.28227,8.77575
39.05799,0.93306,0.27030,0.63328,0.14417,0.02433,-0.58566,0.02471,-0.01172,1.92283,-0.01061,-0.02728,1.79671,0.48224,0.31251,-0.30010,-0.62159,-4.09827,792.73889,787.36657,0.57918,12.62450,0.62159,-0.50503,-8.53409,9.28227,8.77724
39.05899,0.93306,0.27030,0.63328,0.14382,0.03431,-0.58485,0.02471,-0.01172,1.92283,-0.01061,-0.02728,1.79671,0.48224,0.31251,-0.30010,-0.62159,-4.09968,792.87536,790.83514,0.57925,12.62506,0.62159,-0.50350,-8.51974,9.28227,8.77877
39.06000,0.93306,0.27030,0.63328,0.14382,0.03431,-0.58485,0.02471,-0.01172,1.92283,-0.01061,-0.02728,1.79671,0.48224,0.31251,-0.30010,-0.62159,-4.09968,792.87536,787.36657,0.57925,12.62562,0.62159,-0.50198,-8.51974,9.28227,8.78029
39.06100,0.93306,0.27030,0.63328,0.14240,0.03616,-0.58607,0.02471,-0.01172,1.92283,-0.01061,-0.02728,1.79671,0.48224,0.31251,-0.30010,-0.62159,-4.10100,793.00250,787.36657,0.57932,12.62617,0.62159,-0.50069,-8.63678,9.28227,8.78158
39.06200,0.93306,0.27030,0.63328,0.14240,0.03616,-0.58607,0.02471,-0.01172,1.92283,-0.01061,-0.02728,1.79671,0.48224,0.31251,-0.30010,-0.62159,-4.10100,793.00250,787.36657,0.57932,12.62671,0.62159,-0.49940,-8.63678,9.28227,8.78287
39.06299,0.93306,0.27030,0.63328,0.14852,0.03890,-0.59050,0.02471,-0.01172,1.92283,-0.01061,-0.02728,1.79671,0.48224,0.31251,-0.30010,-0.62159,-4.10211,793.11035,787.36657,0.57937,12.62725,0.62159,-0.49830,-8.73356,9.28227,8.78397
39.06399,0.93306,0.27030,0.63328,0.14852,0.03890,-0.59050,0.02471,-0.01172,1.92283,-0.01061,-0.02728,1.79671,0.48224,0.31251,-0.30010,-0.62159,-4.10211,793.11035,790.83514,0.57937,12.62779,0.62159,-0.49720,-8.73356,9.28227,8.78507
39.06499,0.93306,0.27030,0.63328,0.15344,0.04915,-0.59148,0.02471,-0.01172,1.92283,-0.01061,-0.02728,1.79671,0.48224,0.31251,-0.30010,-0.62159,-4.10317,793.21258,790.83514,0.57941,12.62832,0.62159,-0.49603,-8.69884,9.28227,8.78624
39.06600,0.93306,0.27030,0.63328,0.15344,0.04915,-0.59148,0.02471,-0.01172,1.92283,-0.01061,-0.02728,1.79671,0.48224,0.31251,-0.30010,-0.62159,-4.10317,793.21258,785.98767,0.57941,12.62884,0.62159,-0.49487,-8.69884,9.28227,8.78740
39.06700,0.77470,0.34748,0.66309,0.14894,0.05792,-0.58894,0.01962,-0.00911,1.92283,-0.00917,-0.02680,1.79081,0.48224,0.31251,-0.30010,-0.62159,-4.10368,793.26196,788.75036,0.57941,12.62936,0.62159,-0.49364,-8.66672,9.28097,8.78733
39.06800,0.77470,0.34748,0.66309,0.14894,0.05792,-0.58894,0.01962,-0.00911,1.92283,-0.00917,-0.02680,1.79081,0.48224,0.31251,-0.30010,-0.62159,-4.10368,793.26196,790.83514,0.57941,12.62987,0.62159,-0.49241,-8.66672,9.28097,8.78856
39.06900,0.77470,0.34748,0.66309,0.14490,0.05848,-0.59084,0.01962,-0.00911,1.92283,-0.00917,-0.02680,1.79081,0.48224,0.31251,-0.30010,-0.62159,-4.10475,793.36578,792.93103,0.57946,12.63038,0.62159,-0.49134,-8.74583,9.28097,8.78963
39.06999,0.77470,0.34748,0.66309,0.14490,0.05848,-0.59084,0.01962,-0.00911,1.92283,-0.00917,-0.02680,1.79081,0.48224,0.31251,-0.30010,-0.62159,-4.10475,793.36578,792.93103,0.57946,12.63088,0.62159,-0.49027,-8.74583,9.28097,8.79070
39.07099,0.77470,0.34748,0.66309,0.15089,0.05958,-0.59801,0.01962,-0.00911,1.92283,-0.00917,-0.02680,1.79081,0.48224,0.31251,-0.30010,-0.62159,-4.10569,793.45642,792.93103,0.57950,12.63138,0.62159,-0.48933,-8.81183,9.28097,8.79164
39.07199,0.77470,0.34748,0.66309,0.15089,0.05958,-0.59801,0.01962,-0.00911,1.92283,-0.00917,-0.02680,1.79081,0.48224,0.31251,-0.30010,-0.62159,-4.10569,793.45642,792.93103,0.57950,12.63187,0.62159,-0.48839,-8.81183,9.28097,8.79258
39.07300,0.77470,0.34748,0.66309,0.15750,0.06780,-0.60207,0.01962,-0.00911,1.92283,-0.00917,-0.02680,1.79081,0.48224,0.31251,-0.30010,-0.62159,-4.10661,793.54492,792.93103,0.57953,12.63235,0.62159,-0.48737,-8.76895,9.28097,8.79360
39.07400,0.77470,0.34748,0.66309,0.15750,0.06780,-0.60207,0.01962,-0.00911,1.92283,-0.00917,-0.02680,1.79081,0.48224,0.31251,-0.30010,-0.62159,-4.10661,793.54492,792.93103,0.57953,12.63282,0.62159,-0.48634,-8.76895,9.28097,8.79462
39.07500,0.77470,0.34748,0.66309,0.15419,0.07434,-0.60073,0.01962,-0.00911,1.92283,-0.00917,-0.02680,1.79081,0.48224,0.31251,-0.30010,-0.62159,-4.10758,793.63903,790.13897,0.57957,12.63329,0.62159,-0.48528,-8.74986,9.28097,8.79569
39.07600,0.77470,0.34748,0.66309,0.15419,0.07434,-0.60073,0.01962,-0.00911,1.92283,-0.00917,-0.02680,1.79081,0.48224,0.31251,-0.30010,-0.62159,-4.10758,793.63903,792.93103,0.57957,12.63375,0.61599,-0.48422,-8.74994,9.28097,8.79675
39.07699,0.88790,0.33413,0.69237,0.14865,0.07273,-0.60113,0.02465,-0.00902,1.92283,-0.00770,-0.02612,1.78483,0.47384,0.32934,-0.30010,-0.61599,-4.14439,797.18664,792.93103,0.58277,12.63420,0.61599,-0.48320,-8.84837,9.35770,8.87450
39.07799,0.88790,0.33413,0.69237,0.14865,0.07273,-0.60113,0.02465,-0.00902,1.92283,-0.00770,-0.02612,1.78483,0.47384,0.32934,-0.30010,-0.61599,-4.14439,797.18664,792.93103,0.58277,12.63465,0.61599,-0.48218,-8.84837,9.35770,8.87552
39.07899,0.88790,0.33413,0.69237,0.15036,0.07190,-0.60516,0.02465,-0.00902,1.92283,-0.00770,-0.02612,1.78483,0.47384,0.32934,-0.30010,-0.61599,-4.14527,797.27185,792.93103,0.58281,12.63509,0.61599,-0.48130,-8.91865,9.35770,8.87639
39.08000,0.88790,0.33413,0.69237,0.15036,0.07190,-0.60516,0.02465,-0.00902,1.92283,-0.00770,-0.02612,1.78483,0.47384,0.32934,-0.30010,-0.61599,-4.14527,797.27185,790.13897,0.58281,12.63551,0.61599,-0.48043,-8.91865,9.35770,8.87727
39.08100,0.88790,0.33413,0.69237,0.15229,0.07817,-0.60638,0.02465,-0.00902,1.92283,-0.00770,-0.02612,1.78483,0.47384,0.32934,-0.30010,-0.61599,-4.14615,797.35632,790.13897,0.58285,12.63593,0.61599,-0.47942,-8.85671,9.35770,8.87827
39.08200,0.88790,0.33413,0.69237,0.15229,0.07817,-0.60638,0.02465,-0.00902,1.92283,-0.00770,-0.02612,1.78483,0.47384,0.32934,-0.30010,-0.61599,-4.14615,797.35632,790.13897,0.58285,12.63634,0.61599,-0.47842,-8.85671,9.35770,8.87928
39.08300,0.88790,0.33413,0.69237,0.14681,0.08257,-0.60456,0.02465,-0.00902,1.92283,-0.00770,-0.02612,1.78483,0.47384,0.32934,-0.30010,-0.61599,-4.14714,797.45086,790.13897,0.58290,12.63675,0.61599,-0.47732,-8.80541,9.35770,8.88038
39.08399,0.88790,0.33413,0.69237,0.14681,0.08257,-0.60456,0.02465,-0.00902,1.92283,-0.00770,-0.02612,1.78483,0.47384,0.32934,-0.30010,-0.61599,-4.14714,797.45086,790.13897,0.58290,12.63714,0.61599,-0.47621,-8.80541,9.35770,8.88148
39.08499,0.88790,0.33413,0.69237,0.14215,0.07885,-0.60768,0.02465,-0.00902,1.92283,-0.00770,-0.02612,1.78483,0.47384,0.32934,-0.30010,-0.61599,-4.14811,797.54461,789.44403,0.58294,12.63753,0.61599,-0.47523,-8.86634,9.35770,8.88247
39.08599,0.88790,0.33413,0.69237,0.14215,0.07885,-0.60768,0.02465,-0.00902,1.92283,-0.00770,-0.02612,1.78483,0.47384,0.32934,-0.30010,-0.61599,-4.14811,797.54461,789.44403,0.58294,12.63791,0.61019,-0.47425,-8.86634,9.35770,8.88345
39.08700,0.94104,0.27276,0.72184,0.14556,0.07605,-0.61649,0.02964,-0.01179,1.92283,-0.00630,-0.02535,1.77876,0.46514,0.34364,-0.30010,-0.61019,-4.18202,800.79779,789.44403,0.58588,12.63828,0.61019,-0.47320,-8.90407,9.42828,8.95508
39.08800,0.94104,0.27276,0.72184,0.14556,0.07605,-0.61649,0.02964,-0.01179,1.92283,-0.00630,-0.02535,1.77876,0.46514,0.34364,-0.30010,-0.61019,-4.18202,800.79779,789.44403,0.58588,12.63864,0.61019,-0.47215,-8.90407,9.42828,8.95613
39.08900,0.94104,0.27276,0.72184,0.14758,0.08028,-0.62221,0.02964,-0.01179,1.92283,-0.00630,-0.02535,1.77876,0.46514,0.34364,-0.30010,-0.61019,-4.18306,800.89746,788.05786,0.58594,12.63900,0.61019,-0.47097,-8.83817,9.42828,8.95731
39.09000,0.94104,0.27276,0.72184,0.14758,0.08028,-0.62221,0.02964,-0.01179,1.92283,-0.00630,-0.02535,1.77876,0.46514,0.34364,-0.30010,-0.61019,-4.18306,800.89746,788.05786,0.58594,12.63934,0.61019,-0.46979,-8.83817,9.42828,8.95849
39.09099,0.94104,0.27276,0.72184,0.14040,0.08231,-0.62230,0.02964,-0.01179,1.92283,-0.00630,-0.02535,1.77876,0.46514,0.34364,-0.30010,-0.61019,-4.18418,801.00482,788.05786,0.58600,12.63968,0.61019,-0.46857,-8.81715,9.42828,8.95971
39.09199,0.94104,0.27276,0.72184,0.14040,0.08231,-0.62230,0.02964,-0.01179,1.92283,-0.00630,-0.02535,1.77876,0.46514,0.34364,-0.30010,-0.61019,-4.18418,801.00482,788.05786,0.58600,12.64001,0.61019,-0.46735,-8.81715,9.42828,8.96093
39.09299,0.94104,0.27276,0.72184,0.13368,0.07634,-0.62361,0.02964,-0.01179,1.92283,-0.00630,-0.02535,1.77876,0.46514,0.34364,-0.30010,-0.61019,-4.18523,801.10498,788.05786,0.58606,12.64034,0.61019,-0.46633,-8.91945,9.42828,8.96195
39.09400,0.94104,0.27276,0.72184,0.13368,0.07634,-0.62361,0.02964,-0.01179,1.92283,-0.00630,-0.02535,1.77876,0.46514,0.34364,-0.30010,-0.61019,-4.18523,801.10498,792.23114,0.58606,12.64065,0.61019,-0.46531,-8.91945,9.42828,8.96297
39.09500,0.94104,0.27276,0.72184,0.13583,0.07214,-0.62772,0.02964,-0.01179,1.92283,-0.00630,-0.02535,1.77876,0.46514,0.34364,-0.30010,-0.61019,-4.18611,801.18920,788.05786,0.58611,12.64095,0.61019,-0.46444,-8.99412,9.42828,8.96384
39.09600,0.94104,0.27276,0.72184,0.13583,0.07214,-0.62772,0.02964,-0.01179,1.92283,-0.00630,-0.02535,1.77876,0.46514,0.34364,-0.30010,-0.61019,-4.18611,801.18920,788.05786,0.58611,12.64124,0.60419,-0.46357,-8.99412,9.42828,8.96471
39.09700,0.94178,0.35369,0.75326,0.13794,0.07591,-0.62846,0.03290,-0.00853,1.92283,-0.00495,-0.02464,1.77248,0.45614,0.35620,-0.30010,-0.60419,-4.21754,804.19097,792.23114,0.58882,12.64153,0.60419,-0.46251,-8.95960,9.49364,9.03113
39.09799,0.94178,0.35369,0.75326,0.13794,0.07591,-0.62846,0.03290,-0.00853,1.92283,-0.00495,-0.02464,1.77248,0.45614,0.35620,-0.30010,-0.60419,-4.21754,804.19097,792.93103,0.58882,12.64180,0.60419,-0.46144,-8.95960,9.49364,9.03220
39.09899,0.94178,0.35369,0.75326,0.13248,0.07826,-0.62597,0.03290,-0.00853,1.92283,-0.00495,-0.02464,1.77248,0.45614,0.35620,-0.30010,-0.60419,-4.21854,804.28686,794.33441,0.58889,12.64207,0.60419,-0.46035,-8.95134,9.49364,9.03328
39.09999,0.94178,0.35369,0.75326,0.13248,0.07826,-0.62597,0.03290,-0.00853,1.92283,-0.00495,-0.02464,1.77248,0.45614,0.35620,-0.30010,-0.60419,-4.21854,804.28686,794.33441,0.58889,12.64232,0.60419,-0.45927,-8.95134,9.49364,9.03437
39.10100,0.94178,0.35369,0.75326,0.12891,0.07324,-0.62806,0.03290,-0.00853,1.92283,-0.00495,-0.02464,1.77248,0.45614,0.35620,-0.30010,-0.60419,-4.21947,804.37524,795.03796,0.58894,12.64257,0.60419,-0.45837,-9.04270,9.49364,9.03527
39.10200,0.94178,0.35369,0.75326,0.12891,0.07324,-0.62806,0.03290,-0.00853,1.92283,-0.00495,-0.02464,1.77248,0.45614,0.35620,-0.30010,-0.60419,-4.21947,804.37524,797.15625,0.58894,12.64281,0.60419,-0.45747,-9.04270,9.49364,9.03617
39.10300,0.94178,0.35369,0.75326,0.13447,0.06974,-0.63505,0.03290,-0.00853,1.92283,-0.00495,-0.02464,1.77248,0.45614,0.35620,-0.30010,-0.60419,-4.22025,804.45007,797.15625,0.58899,12.64304,0.60419,-0.45669,-9.10381,9.49364,9.03695
39.10400,0.94178,0.35369,0.75326,0.13447,0.06974,-0.63505,0.03290,-0.00853,1.92283,-0.00495,-0.02464,1.77248,0.45614,0.35620,-0.30010,-0.60419,-4.22025,804.45007,797.15625,0.58899,12.64326,0.60419,-0.45591,-9.10381,9.49364,9.03773
39.10499,0.94178,0.35369,0.75326,0.13858,0.07296,-0.63818,0.03290,-0.00853,1.92283,-0.00495,-0.02464,1.77248,0.45614,0.35620,-0.30010,-0.60419,-4.22101,804.52246,802.86035,0.58904,12.64347,0.60419,-0.45506,-9.07063,9.49364,9.03858
39.10599,0.94178,0.35369,0.75326,0.13858,0.07296,-0.63818,0.03290,-0.00853,1.92283,-0.00495,-0.02464,1.77248,0.45614,0.35620,-0.30010,-0.60419,-4.22101,804.52246,802.86035,0.58904,12.64367,0.60419,-0.45421,-9.07063,9.49364,9.03942
39.10699,0.77159,0.33791,0.78452,0.13322,0.07407,-0.63536,0.02680,-0.00815,1.92283,-0.00364,-0.02399,1.76613,0.45614,0.35620,-0.30010,-0.60419,-4.22096,804.51696,802.86035,0.58901,12.64386,0.60419,-0.45342,-9.09512,9.49188,9.03845
39.10800,0.77159,0.33791,0.78452,0.13322,0.07407,-0.63536,0.02680,-0.00815,1.92283,-0.00364,-0.02399,1.76613,0.45614,0.35620,-0.30010,-0.60419,-4.22096,804.51696,802.86035,0.58901,12.64404,0.60419,-0.45263,-9.09512,9.49188,9.03925
39.10900,0.77159,0.33791,0.78452,0.12882,0.06898,-0.63381,0.02680,-0.00815,1.92283,-0.00364,-0.02399,1.76613,0.45614,0.35620,-0.30010,-0.60419,-4.22156,804.57440,802.86035,0.58905,12.64421,0.60419,-0.45213,-9.24342,9.49188,9.03974
39.11000,0.77159,0.33791,0.78452,0.12882,0.06898,-0.63381,0.02680,-0.00815,1.92283,-0.00364,-0.02399,1.76613,0.45614,0.35620,-0.30010,-0.60419,-4.22156,804.57440,797.86480,0.58905,12.64438,0.60419,-0.45163,-9.24342,9.49188,9.04024
39.11100,0.77159,0.33791,0.78452,0.13381,0.06778,-0.63515,0.02680,-0.00815,1.92283,-0.00364,-0.02399,1.76613,0.45614,0.35620,-0.30010,-0.60419,-4.22193,804.60980,799.28570,0.58907,12.64454,0.60419,-0.45133,-9.34261,9.49188,9.04054
39.11199,0.77159,0.33791,0.78452,0.13381,0.06778,-0.63515,0.02680,-0.00815,1.92283,-0.00364,-0.02399,1.76613,0.45614,0.35620,-0.30010,-0.60419,-4.22193,804.60980,799.28570,0.58907,12.64469,0.60419,-0.45104,-9.34261,9.49188,9.04084
39.11299,0.77159,0.33791,0.78452,0.13912,0.07488,-0.63361,0.02680,-0.00815,1.92283,-0.00364,-0.02399,1.76613,0.45614,0.35620,-0.30010,-0.60419,-4.22223,804.63842,799.28570,0.58908,12.64483,0.60419,-0.45069,-9.31975,9.49188,9.04118
39.11399,0.77159,0.33791,0.78452,0.13912,0.07488,-0.63361,0.02680,-0.00815,1.92283,-0.00364,-0.02399,1.76613,0.45614,0.35620,-0.30010,-0.60419,-4.22223,804.63842,797.86480,0.58908,12.64496,0.60419,-0.45035,-9.31975,9.49188,9.04153
39.11500,0.77159,0.33791,0.78452,0.13767,0.07965,-0.62983,0.02680,-0.00815,1.92283,-0.00364,-0.02399,1.76613,0.45614,0.35620,-0.30010,-0.60419,-4.22254,804.66754,797.86480,0.58909,12.64509,0.60419,-0.45004,-9.33670,9.49188,9.04184
39.11600,0.77159,0.33791,0.78452,0.13767,0.07965,-0.62983,0.02680,-0.00815,1.92283,-0.00364,-0.02399,1.76613,0.45614,0.35620,-0.30010,-0.60419,-4.22254,804.66754,797.86480,0.58909,12.64520,0.59999,-0.44973,-9.33670,9.49188,9.04215
39.11700,0.81163,0.06493,0.81524,0.13841,0.07679,-0.63080,0.02740,-0.02179,1.92283,-0.00227,-0.02335,1.75977,0.44984,0.37258,-0.30010,-0.59999,-4.25556,807.80792,797.86480,0.59195,12.64531,0.59999,-0.44950,-9.45104,9.56206,9.11255
39.11800,0.81163,0.06493,0.81524,0.13841,0.07679,-0.63080,0.02740,-0.02179,1.92283,-0.00227,-0.02335,1.75977,0.44984,0.37258,-0.30010,-0.59999,-4.25556,807.80792,797.86480,0.59195,12.64542,0.59999,-0.44928,-9.45104,9.56206,9.11277
39.11899,0.81163,0.06493,0.81524,0.14691,0.07561,-0.63579,0.02740,-0.02179,1.92283,-0.00227,-0.02335,1.75977,0.44984,0.37258,-0.30010,-0.59999,-4.25571,807.82232,797.86480,0.59195,12.64551,0.59999,-0.44918,-9.51146,9.56206,9.11287
39.11999,0.81163,0.06493,0.81524,0.14691,0.07561,-0.63579,0.02740,-0.02179,1.92283,-0.00227,-0.02335,1.75977,0.44984,0.37258,-0.30010,-0.59999,-4.25571,807.82232,799.28570,0.59195,12.64561,0.59999,-0.44908,-9.51146,9.56206,9.11298
39.12099,0.81163,0.06493,0.81524,0.15305,0.08009,-0.63730,0.02740,-0.02179,1.92283,-0.00227,-0.02335,1.75977,0.44984,0.37258,-0.30010,-0.59999,-4.25583,807.83349,799.28570,0.59195,12.64569,0.59999,-0.44893,-9.48552,9.56206,9.11313
39.12200,0.81163,0.06493,0.81524,0.15305,0.08009,-0.63730,0.02740,-0.02179,1.92283,-0.00227,-0.02335,1.75977,0.44984,0.37258,-0.30010,-0.59999,-4.25583,807.83349,799.28570,0.59195,12.64578,0.59999,-0.44877,-9.48552,9.56206,9.11328
39.12300,0.81163,0.06493,0.81524,0.15111,0.08107,-0.63528,0.02740,-0.02179,1.92283,-0.00227,-0.02335,1.75977,0.44984,0.37258,-0.30010,-0.59999,-4.25592,807.84252,797.86480,0.59195,12.64585,0.59999,-0.44872,-9.53734,9.56206,9.11333
39.12400,0.81163,0.06493,0.81524,0.15111,0.08107,-0.63528,0.02740,-0.02179,1.92283,-0.00227,-0.02335,1.75977,0.44984,0.37258,-0.30010,-0.59999,-4.25592,807.84252,797.86480,0.59195,12.64592,0.59999,-0.44868,-9.53734,9.56206,9.11338
39.12500,0.81163,0.06493,0.81524,0.15122,0.07642,-0.63616,0.02740,-0.02179,1.92283,-0.00227,-0.02335,1.75977,0.44984,0.37258,-0.30010,-0.59999,-4.25583,807.83331,797.86480,0.59194,12.64598,0.59999,-0.44893,-9.69111,9.56206,9.11312
39.12599,0.81163,0.06493,0.81524,0.15122,0.07642,-0.63616,0.02740,-0.02179,1.92283,-0.00227,-0.02335,1.75977,0.44984,0.37258,-0.30010,-0.59999,-4.25583,807.83331,799.28570,0.59194,12.64604,0.59359,-0.44919,-9.69111,9.56206,9.11286
39.12699,0.84534,0.33375,0.84721,0.15897,0.07689,-0.63908,0.02923,-0.01346,1.92283,-0.00072,-0.02265,1.75339,0.44024,0.38344,-0.30010,-0.59359,-4.28383,810.48632,806.46710,0.59435,12.64610,0.59359,-0.44948,-9.76585,9.62256,9.17308
39.12799,0.84534,0.33375,0.84721,0.15897,0.07689,-0.63908,0.02923,-0.01346,1.92283,-0.00072,-0.02265,1.75339,0.44024,0.38344,-0.30010,-0.59359,-4.28383,810.48632,815.99810,0.59435,12.64614,0.59359,-0.44976,-9.76585,9.62256,9.17279
39.12900,0.84534,0.33375,0.84721,0.16486,0.08492,-0.63754,0.02923,-0.01346,1.92283,-0.00072,-0.02265,1.75339,0.44024,0.38344,-0.30010,-0.59359,-4.28360,810.46527,818.22955,0.59433,12.64619,0.59359,-0.44996,-9.71776,9.62256,9.17260
39.13000,0.84534,0.33375,0.84721,0.16486,0.08492,-0.63754,0.02923,-0.01346,1.92283,-0.00072,-0.02265,1.75339,0.44024,0.38344,-0.30010,-0.59359,-4.28360,810.46527,818.22955,0.59433,12.64622,0.59359,-0.45015,-9.71776,9.62256,9.17241
39.13100,0.84534,0.33375,0.84721,0.16428,0.08946,-0.63298,0.02923,-0.01346,1.92283,-0.00072,-0.02265,1.75339,0.44024,0.38344,-0.30010,-0.59359,-4.28342,810.44842,818.22955,0.59431,12.64626,0.59359,-0.45034,-9.71736,9.62256,9.17222
39.13199,0.84534,0.33375,0.84721,0.16428,0.08946,-0.63298,0.02923,-0.01346,1.92283,-0.00072,-0.02265,1.75339,0.44024,0.38344,-0.30010,-0.59359,-4.28342,810.44842,818.22955,0.59431,12.64628,0.59359,-0.45052,-9.71736,9.62256,9.17203
39.13299,0.84534,0.33375,0.84721,0.16666,0.08760,-0.63243,0.02923,-0.01346,1.92283,-0.00072,-0.02265,1.75339,0.44024,0.38344,-0.30010,-0.59359,-4.28316,810.42352,818.22955,0.59429,12.64630,0.59359,-0.45090,-9.81023,9.62256,9.17166
39.13399,0.84534,0.33375,0.84721,0.16666,0.08760,-0.63243,0.02923,-0.01346,1.92283,-0.00072,-0.02265,1.75339,0.44024,0.38344,-0.30010,-0.59359,-4.28316,810.42352,818.22955,0.59429,12.64632,0.59359,-0.45128,-9.81023,9.62256,9.17128
39.13499,0.84534,0.33375,0.84721,0.17513,0.08929,-0.63479,0.02923,-0.01346,1.92283,-0.00072,-0.02265,1.75339,0.44024,0.38344,-0.30010,-0.59359,-4.28279,810.38842,818.22955,0.59425,12.64633,0.59359,-0.45169,-9.83165,9.62256,9.17086
39.13600,0.84534,0.33375,0.84721,0.17513,0.08929,-0.63479,0.02923,-0.01346,1.92283,-0.00072,-0.02265,1.75339,0.44024,0.38344,-0.30010,-0.59359,-4.28279,810.38842,815.99810,0.59425,12.64634,0.59359,-0.45211,-9.83168,9.62256,9.17044
39.13700,0.76365,0.32771,0.87848,0.17910,0.09623,-0.63352,0.02619,-0.01194,1.92283,0.00112,-0.02184,1.74702,0.44024,0.38344,-0.30010,-0.59359,-4.28200,810.31335,807.19238,0.59418,12.64634,0.59359,-0.45240,-9.76388,9.62156,9.16916
39.13800,0.76365,0.32771,0.87848,0.17910,0.09623,-0.63352,0.02619,-0.01194,1.92283,0.00112,-0.02184,1.74702,0.44024,0.38344,-0.30010,-0.59359,-4.28200,810.31335,802.86035,0.59418,12.64634,0.59359,-0.45268,-9.76388,9.62156,9.16888
39.13899,0.76365,0.32771,0.87848,0.17583,0.09873,-0.63000,0.02619,-0.01194,1.92283,0.00112,-0.02184,1.74702,0.44024,0.38344,-0.30010,-0.59359,-4.28170,810.28564,800.71173,0.59416,12.64633,0.59359,-0.45302,-9.79259,9.62156,9.16854
39.13999,0.76365,0.32771,0.87848,0.17583,0.09873,-0.63000,0.02619,-0.01194,1.92283,0.00112,-0.02184,1.74702,0.44024,0.38344,-0.30010,-0.59359,-4.28170,810.28564,800.71173,0.59416,12.64632,0.59359,-0.45337,-9.79259,9.62156,9.16819
39.14099,0.76365,0.32771,0.87848,0.17690,0.09678,-0.63028,0.02619,-0.01194,1.92283,0.00112,-0.02184,1.74702,0.44024,0.38344,-0.30010,-0.59359,-4.28127,810.24444,800.71173,0.59412,12.64630,0.59359,-0.45396,-9.91686,9.62156,9.16760
39.14199,0.76365,0.32771,0.87848,0.17690,0.09678,-0.63028,0.02619,-0.01194,1.92283,0.00112,-0.02184,1.74702,0.44024,0.38344,-0.30010,-0.59359,-4.28127,810.24444,800.71173,0.59412,12.64628,0.59359,-0.45455,-9.91686,9.62156,9.16701
39.14300,0.76365,0.32771,0.87848,0.18576,0.10106,-0.63225,0.02619,-0.01194,1.92283,0.00112,-0.02184,1.74702,0.44024,0.38344,-0.30010,-0.59359,-4.28071,810.19140,800.71173,0.59408,12.64625,0.59359,-0.45515,-9.92542,9.62156,9.16640
39.14400,0.76365,0.32771,0.87848,0.18576,0.10106,-0.63225,0.02619,-0.01194,1.92283,0.00112,-0.02184,1.74702,0.44024,0.38344,-0.30010,-0.59359,-4.28071,810.19140,794.33441,0.59408,12.64622,0.59359,-0.45576,-9.92542,9.62156,9.16580
39.14500,0.76365,0.32771,0.87848,0.19131,0.11085,-0.63003,0.02619,-0.01194,1.92283,0.00112,-0.02184,1.74702,0.44024,0.38344,-0.30010,-0.59359,-4.28025,810.14801,794.33441,0.59404,12.64618,0.59359,-0.45614,-9.80943,9.62156,9.16542
39.14599,0.76365,0.32771,0.87848,0.19131,0.11085,-0.63003,0.02619,-0.01194,1.92283,0.00112,-0.02184,1.74702,0.44024,0.38344,-0.30010,-0.59359,-4.28025,810.14801,794.33441,0.59404,12.64614,0.58699,-0.45651,-9.80943,9.62156,9.16505
39.14699,0.88768,0.23699,0.90976,0.19057,0.11402,-0.62673,0.03219,-0.01523,1.92283,0.00313,-0.02085,1.74069,0.43034,0.39258,-0.30010,-0.58699,-4.30767,812.73907,800.71173,0.59641,12.64610,0.58699,-0.45670,-9.77571,9.68085,9.22414
39.14799,0.88768,0.23699,0.90976,0.19057,0.11402,-0.62673,0.03219,-0.01523,1.92283,0.00313,-0.02085,1.74069,0.43034,0.39258,-0.30010,-0.58699,-4.30767,812.73907,800.71173,0.59641,12.64605,0.58699,-0.45689,-9.77571,9.68085,9.22395
39.14899,0.88768,0.23699,0.90976,0.19408,0.10993,-0.62889,0.03219,-0.01523,1.92283,0.00313,-0.02085,1.74069,0.43034,0.39258,-0.30010,-0.58699,-4.30743,812.71655,801.42669,0.59639,12.64599,0.58699,-0.45721,-9.84174,9.68085,9.22363
39.15000,0.88768,0.23699,0.90976,0.19408,0.10993,-0.62889,0.03219,-0.01523,1.92283,0.00313,-0.02085,1.74069,0.43034,0.39258,-0.30010,-0.58699,-4.30743,812.71655,801.42669,0.59639,12.64593,0.58699,-0.45754,-9.84174,9.68085,9.22331
39.15100,0.88768,0.23699,0.90976,0.20351,0.10971,-0.63338,0.03219,-0.01523,1.92283,0.00313,-0.02085,1.74069,0.43034,0.39258,-0.30010,-0.58699,-4.30715,812.69006,812.30578,0.59637,12.64587,0.58699,-0.45782,-9.82073,9.68085,9.22303
39.15200,0.88768,0.23699,0.90976,0.20351,0.10971,-0.63338,0.03219,-0.01523,1.92283,0.00313,-0.02085,1.74069,0.43034,0.39258,-0.30010,-0.58699,-4.30715,812.69006,804.29919,0.59637,12.64580,0.58699,-0.45810,-9.82073,9.68085,9.22275
39.15299,0.88768,0.23699,0.90976,0.20790,0.11409,-0.63364,0.03219,-0.01523,1.92283,0.00313,-0.02085,1.74069,0.43034,0.39258,-0.30010,-0.58699,-4.30699,812.67468,804.29919,0.59637,12.64573,0.58699,-0.45817,-9.71560,9.68085,9.22268
39.15399,0.88768,0.23699,0.90976,0.20790,0.11409,-0.63364,0.03219,-0.01523,1.92283,0.00313,-0.02085,1.74069,0.43034,0.39258,-0.30010,-0.58699,-4.30699,812.67468,804.29919,0.59637,12.64565,0.58699,-0.45823,-9.71560,9.68085,9.22261
39.15499,0.88768,0.23699,0.90976,0.20620,0.11403,-0.63245,0.03219,-0.01523,1.92283,0.00313,-0.02085,1.74069,0.43034,0.39258,-0.30010,-0.58699,-4.30692,812.66857,812.30578,0.59637,12.64557,0.58699,-0.45830,-9.71484,9.68085,9.22254
39.15599,0.88768,0.23699,0.90976,0.20620,0.11403,-0.63245,0.03219,-0.01523,1.92283,0.00313,-0.02085,1.74069,0.43034,0.39258,-0.30010,-0.58699,-4.30692,812.66857,804.29919,0.59637,12.64548,0.58699,-0.45837,-9.71489,9.68085,9.22247
39.15700,0.76090,0.28921,0.94067,0.20940,0.11148,-0.63530,0.02852,-0.01328,1.92283,0.00534,-0.01969,1.73435,0.43034,0.39258,-0.30010,-0.58699,-4.30617,812.59747,804.29919,0.59631,12.64539,0.58699,-0.45857,-9.77979,9.67951,9.22093
39.15800,0.76090,0.28921,0.94067,0.20940,0.11148,-0.63530,0.02852,-0.01328,1.92283,0.00534,-0.01969,1.73435,0.43034,0.39258,-0.30010,-0.58699,-4.30617,812.59747,804.29919,0.59631,12.64529,0.58699,-0.45877,-9.77979,9.67951,9.22073
39.15900,0.76090,0.28921,0.94067,0.21854,0.11594,-0.63877,0.02852,-0.01328,1.92283,0.00534,-0.01969,1.73435,0.43034,0.39258,-0.30010,-0.58699,-4.30606,812.58715,804.29919,0.59631,12.64520,0.58699,-0.45880,-9.69576,9.67951,9.22070
39.15999,0.76090,0.28921,0.94067,0.21854,0.11594,-0.63877,0.02852,-0.01328,1.92283,0.00534,-0.01969,1.73435,0.43034,0.39258,-0.30010,-0.58699,-4.30606,812.58715,804.29919,0.59631,12.64509,0.58699,-0.45884,-9.69576,9.67951,9.22066
39.16099,0.76090,0.28921,0.94067,0.22384,0.12358,-0.63816,0.02852,-0.01328,1.92283,0.00534,-0.01969,1.73435,0.43034,0.39258,-0.30010,-0.58699,-4.30621,812.60125,818.22955,0.59633,12.64498,0.58699,-0.45848,-9.50351,9.67951,9.22101
39.16199,0.76090,0.28921,0.94067,0.22384,0.12358,-0.63816,0.02852,-0.01328,1.92283,0.00534,-0.01969,1.73435,0.43034,0.39258,-0.30010,-0.58699,-4.30621,812.60125,804.29919,0.59633,12.64487,0.58699,-0.45813,-9.50351,9.67951,9.22137
39.16299,0.76090,0.28921,0.94067,0.22547,0.12325,-0.63827,0.02852,-0.01328,1.92283,0.00534,-0.01969,1.73435,0.43034,0.39258,-0.30010,-0.58699,-4.30662,812.64007,804.29919,0.59638,12.64476,0.58699,-0.45760,-9.41523,9.67951,9.22190
39.16400,0.76090,0.28921,0.94067,0.22547,0.12325,-0.63827,0.02852,-0.01328,1.92283,0.00534,-0.01969,1.73435,0.43034,0.39258,-0.30010,-0.58699,-4.30662,812.64007,804.29919,0.59638,12.64463,0.58699,-0.45708,-9.41523,9.67951,9.22242
39.16500,0.76090,0.28921,0.94067,0.23219,0.11814,-0.64429,0.02852,-0.01328,1.92283,0.00534,-0.01969,1.73435,0.43034,0.39258,-0.30010,-0.58699,-4.30713,812.68798,804.29919,0.59644,12.64451,0.58699,-0.45652,-9.39986,9.67951,9.22298
39.16600,0.76090,0.28921,0.94067,0.23219,0.11814,-0.64429,0.02852,-0.01328,1.92283,0.00534,-0.01969,1.73435,0.43034,0.39258,-0.30010,-0.58699,-4.30713,812.68798,804.29919,0.59644,12.64438,0.58020,-0.45596,-9.39986,9.67951,9.22354
39.16699,0.82529,0.28054,0.97224,0.24158,0.11898,-0.65138,0.03183,-0.01298,1.92283,0.00777,-0.01848,1.72792,0.42014,0.40223,-0.30010,-0.58020,-4.33606,815.41253,803.57916,0.59893,12.64425,0.58020,-0.45506,-9.29156,9.73999,9.28493
39.16799,0.82529,0.28054,0.97224,0.24158,0.11898,-0.65138,0.03183,-0.01298,1.92283,0.00777,-0.01848,1.72792,0.42014,0.40223,-0.30010,-0.58020,-4.33606,815.41253,804.29919,0.59893,12.64411,0.58020,-0.45416,-9.29156,9.73999,9.28582
39.16899,0.82529,0.28054,0.97224,0.24451,0.12292,-0.65433,0.03183,-0.01298,1.92283,0.00777,-0.01848,1.72792,0.42014,0.40223,-0.30010,-0.58020,-4.33701,815.50244,804.29919,0.59903,12.64397,0.58020,-0.45301,-9.16469,9.73999,9.28697
39.16999,0.82529,0.28054,0.97224,0.24451,0.12292,-0.65433,0.03183,-0.01298,1.92283,0.00777,-0.01848,1.72792,0.42014,0.40223,-0.30010,-0.58020,-4.33701,815.50244,803.57916,0.59903,12.64383,0.58020,-0.45186,-9.16469,9.73999,9.28813
39.17100,0.82529,0.28054,0.97224,0.24532,0.12129,-0.65737,0.03183,-0.01298,1.92283,0.00777,-0.01848,1.72792,0.42014,0.40223,-0.30010,-0.58020,-4.33808,815.60260,804.29919,0.59913,12.64368,0.58020,-0.45073,-9.17466,9.73999,9.28926
39.17200,0.82529,0.28054,0.97224,0.24532,0.12129,-0.65737,0.03183,-0.01298,1.92283,0.00777,-0.01848,1.72792,0.42014,0.40223,-0.30010,-0.58020,-4.33808,815.60260,801.42669,0.59913,12.64353,0.58020,-0.44960,-9.17466,9.73999,9.29039
39.17300,0.82529,0.28054,0.97224,0.25470,0.11937,-0.66406,0.03183,-0.01298,1.92283,0.00777,-0.01848,1.72792,0.42014,0.40223,-0.30010,-0.58020,-4.33910,815.69885,801.42669,0.59924,12.64337,0.58020,-0.44854,-9.20907,9.73999,9.29145
39.17399,0.82529,0.28054,0.97224,0.25470,0.11937,-0.66406,0.03183,-0.01298,1.92283,0.00777,-0.01848,1.72792,0.42014,0.40223,-0.30010,-0.58020,-4.33910,815.69885,801.42669,0.59924,12.64322,0.58020,-0.44748,-9.20907,9.73999,9.29251
39.17499,0.82529,0.28054,0.97224,0.26817,0.12597,-0.66848,0.03183,-0.01298,1.92283,0.00777,-0.01848,1.72792,0.42014,0.40223,-0.30010,-0.58020,-4.34021,815.80267,801.42669,0.59935,12.64306,0.58020,-0.44617,-9.08837,9.73999,9.29381
39.17599,0.82529,0.28054,0.97224,0.26817,0.12597,-0.66848,0.03183,-0.01298,1.92283,0.00777,-0.01848,1.72792,0.42014,0.40223,-0.30010,-0.58020,-4.34021,815.80267,801.42669,0.59935,12.64290,0.57569,-0.44487,-9.08839,9.73999,9.29512
39.17699,0.84211,0.22370,1.00549,0.27413,0.13396,-0.66662,0.03479,-0.01541,1.92283,0.01057,-0.01719,1.72124,0.41339,0.40994,-0.30010,-0.57569,-4.36251,817.89611,801.42669,0.60127,12.64274,0.57569,-0.44314,-8.91732,9.78471,9.34157
39.17800,0.84211,0.22370,1.00549,0.27413,0.13396,-0.66662,0.03479,-0.01541,1.92283,0.01057,-0.01719,1.72124,0.41339,0.40994,-0.30010,-0.57569,-4.36251,817.89611,801.42669,0.60127,12.64258,0.57569,-0.44140,-8.91732,9.78471,9.34331
39.17900,0.84211,0.22370,1.00549,0.27537,0.13270,-0.66457,0.03479,-0.01541,1.92283,0.01057,-0.01719,1.72124,0.41339,0.40994,-0.30010,-0.57569,-4.36416,818.05059,804.29919,0.60143,12.64242,0.57569,-0.43961,-8.88775,9.78471,9.34510
39.18000,0.84211,0.22370,1.00549,0.27537,0.13270,-0.66457,0.03479,-0.01541,1.92283,0.01057,-0.01719,1.72124,0.41339,0.40994,-0.30010,-0.57569,-4.36416,818.05059,804.29919,0.60143,12.64225,0.57569,-0.43781,-8.88775,9.78471,9.34689
39.18099,0.84211,0.22370,1.00549,0.28081,0.12827,-0.66660,0.03479,-0.01541,1.92283,0.01057,-0.01719,1.72124,0.41339,0.40994,-0.30010,-0.57569,-4.36580,818.20434,804.29919,0.60158,12.64209,0.57569,-0.43609,-8.92458,9.78471,9.34862
39.18199,0.84211,0.22370,1.00549,0.28081,0.12827,-0.66660,0.03479,-0.01541,1.92283,0.01057,-0.01719,1.72124,0.41339,0.40994,-0.30010,-0.57569,-4.36580,818.20434,804.29919,0.60158,12.64192,0.57569,-0.43437,-8.92458,9.78471,9.35034
39.18299,0.84211,0.22370,1.00549,0.28614,0.13093,-0.66740,0.03479,-0.01541,1.92283,0.01057,-0.01719,1.72124,0.41339,0.40994,-0.30010,-0.57569,-4.36746,818.35974,804.29919,0.60174,12.64175,0.57569,-0.43254,-8.86976,9.78471,9.35217
39.18399,0.84211,0.22370,1.00549,0.28614,0.13093,-0.66740,0.03479,-0.01541,1.92283,0.01057,-0.01719,1.72124,0.41339,0.40994,-0.30010,-0.57569,-4.36746,818.35974,807.91894,0.60174,12.64158,0.57569,-0.43071,-8.86976,9.78471,9.35400
39.18500,0.84211,0.22370,1.00549,0.28391,0.13552,-0.66368,0.03479,-0.01541,1.92283,0.01057,-0.01719,1.72124,0.41339,0.40994,-0.30010,-0.57569,-4.36922,818.52496,810.83819,0.60191,12.64141,0.57569,-0.42876,-8.81050,9.78471,9.35594
39.18600,0.84211,0.22370,1.00549,0.28391,0.13552,-0.66368,0.03479,-0.01541,1.92283,0.01057,-0.01719,1.72124,0.41339,0.40994,-0.30010,-0.57569,-4.36922,818.52496,810.83819,0.60191,12.64124,0.57569,-0.42682,-8.81050,9.78471,9.35789
39.18700,0.72031,0.26716,1.03783,0.28095,0.13409,-0.66072,0.03114,-0.01384,1.92283,0.01367,-0.01576,1.71453,0.41339,0.40994,-0.30010,-0.57569,-4.37034,818.62915,810.83819,0.60202,12.64106,0.57569,-0.42498,-8.86624,9.78331,9.35833
39.18799,0.72031,0.26716,1.03783,0.28095,0.13409,-0.66072,0.03114,-0.01384,1.92283,0.01367,-0.01576,1.71453,0.41339,0.40994,-0.30010,-0.57569,-4.37034,818.62915,810.83819,0.60202,12.64089,0.57569,-0.42315,-8.86624,9.78331,9.36016
39.18899,0.72031,0.26716,1.03783,0.28558,0.13315,-0.66077,0.03114,-0.01384,1.92283,0.01367,-0.01576,1.71453,0.41339,0.40994,-0.30010,-0.57569,-4.37201,818.78558,810.83819,0.60218,12.64071,0.57569,-0.42141,-8.91192,9.78331,9.36190
39.18999,0.72031,0.26716,1.03783,0.28558,0.13315,-0.66077,0.03114,-0.01384,1.92283,0.01367,-0.01576,1.71453,0.41339,0.40994,-0.30010,-0.57569,-4.37201,818.78558,810.83819,0.60218,12.64053,0.57569,-0.41966,-8.91192,9.78331,9.36365
39.19100,0.72031,0.26716,1.03783,0.29069,0.13905,-0.65818,0.03114,-0.01384,1.92283,0.01367,-0.01576,1.71453,0.41339,0.40994,-0.30010,-0.57569,-4.37370,818.94409,810.83819,0.60234,12.64035,0.57569,-0.41778,-8.84232,9.78331,9.36553
39.19200,0.72031,0.26716,1.03783,0.29069,0.13905,-0.65818,0.03114,-0.01384,1.92283,0.01367,-0.01576,1.71453,0.41339,0.40994,-0.30010,-0.57569,-4.37370,818.94409,812.30578,0.60234,12.64017,0.57569,-0.41590,-8.84232,9.78331,9.36741
39.19300,0.72031,0.26716,1.03783,0.28795,0.14326,-0.65150,0.03114,-0.01384,1.92283,0.01367,-0.01576,1.71453,0.41339,0.40994,-0.30010,-0.57569,-4.37550,819.11254,812.30578,0.60251,12.63999,0.57569,-0.41393,-8.79769,9.78331,9.36938
39.19400,0.72031,0.26716,1.03783,0.28795,0.14326,-0.65150,0.03114,-0.01384,1.92283,0.01367,-0.01576,1.71453,0.41339,0.40994,-0.30010,-0.57569,-4.37550,819.11254,814.51715,0.60251,12.63980,0.57569,-0.41196,-8.79769,9.78331,9.37135
39.19499,0.72031,0.26716,1.03783,0.28411,0.13916,-0.64716,0.03114,-0.01384,1.92283,0.01367,-0.01576,1.71453,0.41339,0.40994,-0.30010,-0.57569,-4.37726,819.27770,812.30578,0.60268,12.63962,0.57569,-0.41015,-8.88025,9.78331,9.37316
39.19599,0.72031,0.26716,1.03783,0.28411,0.13916,-0.64716,0.03114,-0.01384,1.92283,0.01367,-0.01576,1.71453,0.41339,0.40994,-0.30010,-0.57569,-4.37726,819.27770,810.83819,0.60268,12.63943,0.56859,-0.40834,-8.88026,9.78331,9.37496
39.19699,0.74026,0.18767,1.07116,0.28637,0.13537,-0.64667,0.03219,-0.01736,1.92283,0.01681,-0.01421,1.70797,0.40274,0.41833,-0.30010,-0.56859,-4.40602,821.96405,807.19238,0.60515,12.63924,0.56859,-0.40659,-8.96382,9.84132,9.43473
39.19800,0.74026,0.18767,1.07116,0.28637,0.13537,-0.64667,0.03219,-0.01736,1.92283,0.01681,-0.01421,1.70797,0.40274,0.41833,-0.30010,-0.56859,-4.40602,821.96405,807.19238,0.60515,12.63906,0.56859,-0.40483,-8.96382,9.84132,9.43648
39.19900,0.74026,0.18767,1.07116,0.28804,0.13793,-0.64393,0.03219,-0.01736,1.92283,0.01681,-0.01421,1.70797,0.40274,0.41833,-0.30010,-0.56859,-4.40764,822.11584,814.51715,0.60531,12.63887,0.56859,-0.40310,-8.97646,9.84132,9.43821
39.20000,0.74026,0.18767,1.07116,0.28804,0.13793,-0.64393,0.03219,-0.01736,1.92283,0.01681,-0.01421,1.70797,0.40274,0.41833,-0.30010,-0.56859,-4.40764,822.11584,814.51715,0.60531,12.63868,0.56859,-0.40137,-8.97646,9.84132,9.43994
39.20100,0.74026,0.18767,1.07116,0.28423,0.13852,-0.63792,0.03219,-0.01736,1.92283,0.01681,-0.01421,1.70797,0.40274,0.41833,-0.30010,-0.56859,-4.40918,822.25933,814.51715,0.60545,12.63849,0.56859,-0.39981,-9.05870,9.84132,9.44151
39.20199,0.74026,0.18767,1.07116,0.28423,0.13852,-0.63792,0.03219,-0.01736,1.92283,0.01681,-0.01421,1.70797,0.40274,0.41833,-0.30010,-0.56859,-4.40918,822.25933,816.74053,0.60545,12.63829,0.56859,-0.39824,-9.05870,9.84132,9.44307
39.20299,0.74026,0.18767,1.07116,0.28337,0.13298,-0.63385,0.03219,-0.01736,1.92283,0.01681,-0.01421,1.70797,0.40274,0.41833,-0.30010,-0.56859,-4.41046,822.37841,814.51715,0.60558,12.63810,0.56859,-0.39707,-9.25581,9.84132,9.44424
39.20399,0.74026,0.18767,1.07116,0.28337,0.13298,-0.63385,0.03219,-0.01736,1.92283,0.01681,-0.01421,1.70797,0.40274,0.41833,-0.30010,-0.56859,-4.41046,822.37841,816.74053,0.60558,12.63790,0.56859,-0.39590,-9.25581,9.84132,9.44541
39.20500,0.74026,0.18767,1.07116,0.28927,0.13072,-0.63092,0.03219,-0.01736,1.92283,0.01681,-0.01421,1.70797,0.40274,0.41833,-0.30010,-0.56859,-4.41142,822.46832,814.51715,0.60568,12.63771,0.56859,-0.39501,-9.39388,9.84132,9.44631
39.20600,0.74026,0.18767,1.07116,0.28927,0.13072,-0.63092,0.03219,-0.01736,1.92283,0.01681,-0.01421,1.70797,0.40274,0.41833,-0.30010,-0.56859,-4.41142,822.46832,814.51715,0.60568,12.63751,0.56159,-0.39411,-9.39388,9.84132,9.44720
39.20700,0.81252,0.20021,1.10214,0.29145,0.13502,-0.62333,0.03711,-0.01788,1.92283,0.01992,-0.01270,1.70163,0.39224,0.42361,-0.30010,-0.56159,-4.43524,824.68548,814.51715,0.60773,12.63731,0.56159,-0.39318,-9.42490,9.89049,9.49731
39.20800,0.81252,0.20021,1.10214,0.29145,0.13502,-0.62333,0.03711,-0.01788,1.92283,0.01992,-0.01270,1.70163,0.39224,0.42361,-0.30010,-0.56159,-4.43524,824.68548,814.51715,0.60773,12.63711,0.56159,-0.39225,-9.42490,9.89049,9.49824
39.20899,0.81252,0.20021,1.10214,0.28553,0.13535,-0.61323,0.03711,-0.01788,1.92283,0.01992,-0.01270,1.70163,0.39224,0.42361,-0.30010,-0.56159,-4.43602,824.75775,813.77874,0.60781,12.63691,0.56159,-0.39152,-9.52408,9.89049,9.49897
39.20999,0.81252,0.20021,1.10214,0.28553,0.13535,-0.61323,0.03711,-0.01788,1.92283,0.01992,-0.01270,1.70163,0.39224,0.42361,-0.30010,-0.56159,-4.43602,824.75775,813.77874,0.60781,12.63671,0.56159,-0.39078,-9.52408,9.89049,9.49970
39.21099,0.81252,0.20021,1.10214,0.28212,0.12847,-0.60787,0.03711,-0.01788,1.92283,0.01992,-0.01270,1.70163,0.39224,0.42361,-0.30010,-0.56159,-4.43651,824.80322,813.77874,0.60787,12.63651,0.56159,-0.39047,-9.73271,9.89049,9.50002
39.21200,0.81252,0.20021,1.10214,0.28212,0.12847,-0.60787,0.03711,-0.01788,1.92283,0.01992,-0.01270,1.70163,0.39224,0.42361,-0.30010,-0.56159,-4.43651,824.80322,813.77874,0.60787,12.63631,0.56159,-0.39015,-9.73271,9.89049,9.50033
39.21300,0.81252,0.20021,1.10214,0.28571,0.12488,-0.60598,0.03711,-0.01788,1.92283,0.01992,-0.01270,1.70163,0.39224,0.42361,-0.30010,-0.56159,-4.43666,824.81787,813.77874,0.60790,12.63611,0.56159,-0.39013,-9.87954,9.89049,9.50036
39.21400,0.81252,0.20021,1.10214,0.28571,0.12488,-0.60598,0.03711,-0.01788,1.92283,0.01992,-0.01270,1.70163,0.39224,0.42361,-0.30010,-0.56159,-4.43666,824.81787,813.77874,0.60790,12.63591,0.56159,-0.39011,-9.87954,9.89049,9.50038
39.21500,0.81252,0.20021,1.10214,0.28703,0.12732,-0.60129,0.03711,-0.01788,1.92283,0.01992,-0.01270,1.70163,0.39224,0.42361,-0.30010,-0.56159,-4.43663,824.81457,806.46710,0.60792,12.63570,0.56159,-0.39021,-9.93965,9.89049,9.50028
39.21599,0.81252,0.20021,1.10214,0.28703,0.12732,-0.60129,0.03711,-0.01788,1.92283,0.01992,-0.01270,1.70163,0.39224,0.42361,-0.30010,-0.56159,-4.43663,824.81457,813.77874,0.60792,12.63550,0.56159,-0.39031,-9.93964,9.89049,9.50018
39.21699,0.67968,0.24720,1.13065,0.28335,0.12622,-0.59535,0.03344,-0.01589,1.92283,0.02307,-0.01117,1.69560,0.39224,0.42361,-0.30010,-0.56159,-4.43565,824.72375,813.77874,0.60786,12.63529,0.56159,-0.39068,-10.07807,9.88888,9.49819
39.21799,0.67968,0.24720,1.13065,0.28335,0.12622,-0.59535,0.03344,-0.01589,1.92283,0.02307,-0.01117,1.69560,0.39224,0.42361,-0.30010,-0.56159,-4.43565,824.72375,815.99810,0.60786,12.63508,0.56159,-0.39106,-10.07807,9.88888,9.49781
39.21900,0.67968,0.24720,1.13065,0.28377,0.12122,-0.59302,0.03344,-0.01589,1.92283,0.02307,-0.01117,1.69560,0.39224,0.42361,-0.30010,-0.56159,-4.43512,824.67395,818.22955,0.60783,12.63488,0.56159,-0.39183,-10.27316,9.88888,9.49704
39.22000,0.67968,0.24720,1.13065,0.28377,0.12122,-0.59302,0.03344,-0.01589,1.92283,0.02307,-0.01117,1.69560,0.39224,0.42361,-0.30010,-0.56159,-4.43512,824.67395,818.97613,0.60783,12.63467,0.56159,-0.39260,-10.27316,9.88888,9.49627
39.22100,0.67968,0.24720,1.13065,0.28920,0.12241,-0.59093,0.03344,-0.01589,1.92283,0.02307,-0.01117,1.69560,0.39224,0.42361,-0.30010,-0.56159,-4.43435,824.60272,818.97613,0.60779,12.63445,0.56159,-0.39347,-10.32413,9.88888,9.49540
39.22200,0.67968,0.24720,1.13065,0.28920,0.12241,-0.59093,0.03344,-0.01589,1.92283,0.02307,-0.01117,1.69560,0.39224,0.42361,-0.30010,-0.56159,-4.43435,824.60272,819.72406,0.60779,12.63424,0.56159,-0.39434,-10.32413,9.88888,9.49453
39.22299,0.67968,0.24720,1.13065,0.28979,0.12815,-0.58368,0.03344,-0.01589,1.92283,0.02307,-0.01117,1.69560,0.39224,0.42361,-0.30010,-0.56159,-4.43360,824.53283,819.72406,0.60774,12.63403,0.56159,-0.39508,-10.25852,9.88888,9.49379
39.22399,0.67968,0.24720,1.13065,0.28979,0.12815,-0.58368,0.03344,-0.01589,1.92283,0.02307,-0.01117,1.69560,0.39224,0.42361,-0.30010,-0.56159,-4.43360,824.53283,818.22955,0.60774,12.63382,0.56159,-0.39582,-10.25852,9.88888,9.49305
39.22499,0.67968,0.24720,1.13065,0.28499,0.12721,-0.57516,0.03344,-0.01589,1.92283,0.02307,-0.01117,1.69560,0.39224,0.42361,-0.30010,-0.56159,-4.43289,824.46691,815.99810,0.60770,12.63360,0.56159,-0.39660,-10.27840,9.88888,9.49227
39.22600,0.67968,0.24720,1.13065,0.28499,0.12721,-0.57516,0.03344,-0.01589,1.92283,0.02307,-0.01117,1.69560,0.39224,0.42361,-0.30010,-0.56159,-4.43289,824.46691,819.72406,0.60770,12.63339,0.55430,-0.39738,-10.27840,9.88888,9.49149
39.22700,0.67812,0.17732,1.16083,0.28358,0.12168,-0.57075,0.03355,-0.01866,1.92283,0.02622,-0.00968,1.68980,0.38129,0.43065,-0.30010,-0.55430,-4.45761,826.76245,819.72406,0.60982,12.63317,0.55430,-0.39819,-10.35057,9.94340,9.54520
39.22800,0.67812,0.17732,1.16083,0.28358,0.12168,-0.57075,0.03355,-0.01866,1.92283,0.02622,-0.00968,1.68980,0.38129,0.43065,-0.30010,-0.55430,-4.45761,826.76245,819.72406,0.60982,12.63295,0.55430,-0.39901,-10.35057,9.94340,9.54439
39.22900,0.67812,0.17732,1.16083,0.28420,0.12266,-0.56654,0.03355,-0.01866,1.92283,0.02622,-0.00968,1.68980,0.38129,0.43065,-0.30010,-0.55430,-4.45690,826.69708,820.47338,0.60978,12.63273,0.55430,-0.39970,-10.29075,9.94340,9.54369
39.22999,0.67812,0.17732,1.16083,0.28420,0.12266,-0.56654,0.03355,-0.01866,1.92283,0.02622,-0.00968,1.68980,0.38129,0.43065,-0.30010,-0.55430,-4.45690,826.69708,820.47338,0.60978,12.63251,0.55430,-0.40040,-10.29075,9.94340,9.54300
39.23099,0.67812,0.17732,1.16083,0.27865,0.12787,-0.55796,0.03355,-0.01866,1.92283,0.02622,-0.00968,1.68980,0.38129,0.43065,-0.30010,-0.55430,-4.45638,826.64862,819.72406,0.60976,12.63229,0.55430,-0.40082,-10.15538,9.94340,9.54258
39.23199,0.67812,0.17732,1.16083,0.27865,0.12787,-0.55796,0.03355,-0.01866,1.92283,0.02622,-0.00968,1.68980,0.38129,0.43065,-0.30010,-0.55430,-4.45638,826.64862,819.72406,0.60976,12.63207,0.55430,-0.40124,-10.15538,9.94340,9.54215
39.23300,0.67812,0.17732,1.16083,0.27102,0.12767,-0.54960,0.03355,-0.01866,1.92283,0.02622,-0.00968,1.68980,0.38129,0.43065,-0.30010,-0.55430,-4.45602,826.61505,821.22412,0.60975,12.63185,0.55430,-0.40159,-10.11913,9.94340,9.54180
39.23400,0.67812,0.17732,1.16083,0.27102,0.12767,-0.54960,0.03355,-0.01866,1.92283,0.02622,-0.00968,1.68980,0.38129,0.43065,-0.30010,-0.55430,-4.45602,826.61505,824.24047,0.60975,12.63163,0.55430,-0.40195,-10.11913,9.94340,9.54145
39.23500,0.67812,0.17732,1.16083,0.27060,0.12564,-0.54543,0.03355,-0.01866,1.92283,0.02622,-0.00968,1.68980,0.38129,0.43065,-0.30010,-0.55430,-4.45571,826.58642,827.27917,0.60975,12.63140,0.55430,-0.40226,-10.09799,9.94340,9.54114
39.23600,0.67812,0.17732,1.16083,0.27060,0.12564,-0.54543,0.03355,-0.01866,1.92283,0.02622,-0.00968,1.68980,0.38129,0.43065,-0.30010,-0.55430,-4.45571,826.58642,827.27917,0.60975,12.63118,0.55430,-0.40256,-10.09797,9.94340,9.54083
39.23699,0.63426,0.22838,1.18638,0.27238,0.13011,-0.54005,0.03205,-0.01674,1.92283,0.02931,-0.00814,1.68431,0.38129,0.43065,-0.30010,-0.55430,-4.45520,826.53869,827.27917,0.60972,12.63095,0.55430,-0.40253,-9.92486,9.94257,9.54004
39.23799,0.63426,0.22838,1.18638,0.27238,0.13011,-0.54005,0.03205,-0.01674,1.92283,0.02931,-0.00814,1.68431,0.38129,0.43065,-0.30010,-0.55430,-4.45520,826.53869,827.27917,0.60972,12.63073,0.55430,-0.40249,-9.92486,9.94257,9.54007
39.23899,0.63426,0.22838,1.18638,0.26661,0.13506,-0.52958,0.03205,-0.01674,1.92283,0.02931,-0.00814,1.68431,0.38129,0.43065,-0.30010,-0.55430,-4.45543,826.56024,838.87658,0.60976,12.63050,0.55430,-0.40203,-9.71144,9.94257,9.54054
39.24000,0.63426,0.22838,1.18638,0.26661,0.13506,-0.52958,0.03205,-0.01674,1.92283,0.02931,-0.00814,1.68431,0.38129,0.43065,-0.30010,-0.55430,-4.45543,826.56024,838.87658,0.60976,12.63027,0.55430,-0.40157,-9.71144,9.94257,9.54100
39.24100,0.63426,0.22838,1.18638,0.25835,0.13181,-0.51943,0.03205,-0.01674,1.92283,0.02931,-0.00814,1.68431,0.38129,0.43065,-0.30010,-0.55430,-4.45594,826.60766,838.87658,0.60983,12.63005,0.55430,-0.40094,-9.62690,9.94257,9.54163
39.24200,0.63426,0.22838,1.18638,0.25835,0.13181,-0.51943,0.03205,-0.01674,1.92283,0.02931,-0.00814,1.68431,0.38129,0.43065,-0.30010,-0.55430,-4.45594,826.60766,838.87658,0.60983,12.62982,0.55430,-0.40031,-9.62690,9.94257,9.54226
39.24300,0.63426,0.22838,1.18638,0.25675,0.12728,-0.51296,0.03205,-0.01674,1.92283,0.02931,-0.00814,1.68431,0.38129,0.43065,-0.30010,-0.55430,-4.45659,826.66784,838.87658,0.60991,12.62960,0.55430,-0.39955,-9.56333,9.94257,9.54302
39.24399,0.63426,0.22838,1.18638,0.25675,0.12728,-0.51296,0.03205,-0.01674,1.92283,0.02931,-0.00814,1.68431,0.38129,0.43065,-0.30010,-0.55430,-4.45659,826.66784,820.47338,0.60991,12.62937,0.55430,-0.39879,-9.56333,9.94257,9.54378
39.24499,0.63426,0.22838,1.18638,0.25699,0.13000,-0.50499,0.03205,-0.01674,1.92283,0.02931,-0.00814,1.68431,0.38129,0.43065,-0.30010,-0.55430,-4.45745,826.74816,820.47338,0.61000,12.62914,0.55430,-0.39769,-9.39474,9.94257,9.54487
39.24599,0.63426,0.22838,1.18638,0.25699,0.13000,-0.50499,0.03205,-0.01674,1.92283,0.02931,-0.00814,1.68431,0.38129,0.43065,-0.30010,-0.55430,-4.45745,826.74816,820.47338,0.61000,12.62892,0.54699,-0.39660,-9.39474,9.94257,9.54597
39.24700,0.67269,0.17132,1.21319,0.25177,0.13295,-0.49357,0.03432,-0.01892,1.92283,0.03221,-0.00651,1.67921,0.37034,0.43766,-0.30010,-0.54699,-4.48437,829.24041,820.47338,0.61230,12.62869,0.54699,-0.39512,-9.25616,9.99763,9.60251
39.24800,0.67269,0.17132,1.21319,0.25177,0.13295,-0.49357,0.03432,-0.01892,1.92283,0.03221,-0.00651,1.67921,0.37034,0.43766,-0.30010,-0.54699,-4.48437,829.24041,820.47338,0.61230,12.62847,0.54699,-0.39363,-9.25616,9.99763,9.60399
39.24900,0.67269,0.17132,1.21319,0.24690,0.12906,-0.48440,0.03432,-0.01892,1.92283,0.03221,-0.00651,1.67921,0.37034,0.43766,-0.30010,-0.54699,-4.48575,829.36853,820.47338,0.61244,12.62824,0.54699,-0.39215,-9.25587,9.99763,9.60547
39.25000,0.67269,0.17132,1.21319,0.24690,0.12906,-0.48440,0.03432,-0.01892,1.92283,0.03221,-0.00651,1.67921,0.37034,0.43766,-0.30010,-0.54699,-4.48575,829.36853,815.99810,0.61244,12.62801,0.54699,-0.39067,-9.25587,9.99763,9.60696
