time,target gyro x,target gyro y,target gyro z,gyro x,gyro y,gyro z,target angle x,target angle y,target angle z,angle x,angle y,angle z,target vel z,vel z,target pos z,pos z,desire thrust,desire rotor speed,rotor speed,motor_output,bettery voltage,height,thrust,K_T,acc_z_d,acc_z_com
69.77500,0.74084,0.29792,-0.49719,-0.18110,0.05714,-0.17613,0.03862,-0.00022,1.83638,0.04516,-0.02487,1.93306,0.02880,0.00560,-0.64979,-0.66900,-4.46158,827.09240,822.72949,0.55114,13.98523,0.66900,-0.13724,6.52200,9.69085,9.55360
69.77600,0.74084,0.29792,-0.49719,-0.17487,0.05657,-0.19204,0.03862,-0.00022,1.83638,0.04516,-0.02487,1.93306,0.02880,0.00560,-0.64979,-0.66900,-4.46145,827.08032,822.72949,0.55112,13.98526,0.66900,-0.13740,6.52200,9.69085,9.55344
69.77700,0.74084,0.29792,-0.49719,-0.17487,0.05657,-0.19204,0.03862,-0.00022,1.83638,0.04516,-0.02487,1.93306,0.02880,0.00560,-0.64979,-0.66900,-4.46145,827.08032,825.75701,0.55112,13.98530,0.66900,-0.13740,6.52200,9.69085,9.55344
69.77799,0.74084,0.29792,-0.49719,-0.16580,0.06348,-0.20506,0.03862,-0.00022,1.83638,0.04516,-0.02487,1.93306,0.02880,0.00560,-0.64979,-0.66900,-4.46146,827.08068,827.27917,0.55112,13.98534,0.66900,-0.13740,6.52200,9.69085,9.55344
69.77899,0.74084,0.29792,-0.49719,-0.16580,0.06348,-0.20506,0.03862,-0.00022,1.83638,0.04516,-0.02487,1.93306,0.02880,0.00560,-0.64979,-0.66900,-4.46146,827.08068,827.27917,0.55112,13.98538,0.66900,-0.13720,6.52200,9.69085,9.55364
69.77999,-1.57079,-1.06154,-0.42298,-0.16794,0.07105,-0.21486,-0.17710,-0.06954,1.83638,0.04117,-0.02357,1.92967,0.55364,0.00295,-0.29980,-0.66890,-3.41026,723.10821,827.27917,0.46537,13.98542,0.66890,-0.14150,6.52200,7.44399,7.30249
69.78099,-1.57079,-1.06154,-0.42298,-0.16794,0.07105,-0.21486,-0.17710,-0.06954,1.83638,0.04117,-0.02357,1.92967,0.55364,0.00295,-0.29980,-0.66890,-3.41026,723.10821,828.80694,0.46537,13.98546,0.66890,-0.14576,6.52200,7.44399,7.29823
69.78199,-1.57079,-1.06154,-0.42298,-0.17519,0.07261,-0.22565,-0.17710,-0.06954,1.83638,0.04117,-0.02357,1.92967,0.55364,0.00295,-0.29980,-0.66890,-3.40628,722.68597,828.80694,0.46502,13.98550,0.66890,-0.15003,6.52200,7.44399,7.29396
69.78299,-1.57079,-1.06154,-0.42298,-0.17519,0.07261,-0.22565,-0.17710,-0.06954,1.83638,0.04117,-0.02357,1.92967,0.55364,0.00295,-0.29980,-0.66890,-3.40628,722.68597,828.80694,0.46502,13.98554,0.66890,-0.15426,6.52200,7.44399,7.28973
69.78399,-1.57079,-1.06154,-0.42298,-0.17414,0.07298,-0.24002,-0.17710,-0.06954,1.83638,0.04117,-0.02357,1.92967,0.55364,0.00295,-0.29980,-0.66890,-3.40232,722.26611,828.80694,0.46467,13.98558,0.66890,-0.15850,6.52200,7.44399,7.28549
69.78500,-1.57079,-1.06154,-0.42298,-0.17414,0.07298,-0.24002,-0.17710,-0.06954,1.83638,0.04117,-0.02357,1.92967,0.55364,0.00295,-0.29980,-0.66890,-3.40232,722.26611,825.75701,0.46467,13.98563,0.66890,-0.16265,6.52200,7.44399,7.28134
69.78600,-1.57079,-1.06154,-0.42298,-0.17162,0.07647,-0.25570,-0.17710,-0.06954,1.83638,0.04117,-0.02357,1.92967,0.55364,0.00295,-0.29980,-0.66890,-3.39845,721.85473,825.75701,0.46433,13.98567,0.66890,-0.16680,6.52200,7.44399,7.27719
69.78700,-1.57079,-1.06154,-0.42298,-0.17162,0.07647,-0.25570,-0.17710,-0.06954,1.83638,0.04117,-0.02357,1.92967,0.55364,0.00295,-0.29980,-0.66890,-3.39845,721.85473,825.75701,0.46433,13.98572,0.66890,-0.17099,6.52200,7.44399,7.27300
69.78800,-1.57079,-1.06154,-0.42298,-0.17839,0.07835,-0.27086,-0.17710,-0.06954,1.83638,0.04117,-0.02357,1.92967,0.55364,0.00295,-0.29980,-0.66890,-3.39453,721.43884,825.75701,0.46399,13.98576,0.66890,-0.17518,6.52200,7.44399,7.26881
69.78900,-1.57079,-1.06154,-0.42298,-0.17839,0.07835,-0.27086,-0.17710,-0.06954,1.83638,0.04117,-0.02357,1.92967,0.55364,0.00295,-0.29980,-0.66890,-3.39453,721.43884,825.75701,0.46399,13.98581,0.66890,-0.17955,6.52200,7.44399,7.26444
69.79000,0.24967,0.01226,-0.45356,-0.18467,0.07726,-0.28636,-0.08495,-0.04340,1.83638,0.03914,-0.02269,1.92695,0.55364,0.00295,-0.29980,-0.66890,-3.34329,715.97344,824.99804,0.45948,13.98586,0.66890,-0.18412,6.52200,7.34322,7.15909
69.79100,0.24967,0.01226,-0.45356,-0.18467,0.07726,-0.28636,-0.08495,-0.04340,1.83638,0.03914,-0.02269,1.92695,0.55364,0.00295,-0.29980,-0.66890,-3.34329,715.97344,824.24047,0.45948,13.98591,0.66890,-0.18878,6.52200,7.34322,7.15444
69.79199,0.24967,0.01226,-0.45356,-0.18069,0.07997,-0.30073,-0.08495,-0.04340,1.83638,0.03914,-0.02269,1.92695,0.55364,0.00295,-0.29980,-0.66890,-3.33894,715.50750,822.72949,0.45909,13.98596,0.66890,-0.19344,6.52200,7.34322,7.14978
69.79299,0.24967,0.01226,-0.45356,-0.18069,0.07997,-0.30073,-0.08495,-0.04340,1.83638,0.03914,-0.02269,1.92695,0.55364,0.00295,-0.29980,-0.66890,-3.33894,715.50750,821.97613,0.45909,13.98601,0.66890,-0.19806,6.52200,7.34322,7.14516
69.79399,0.24967,0.01226,-0.45356,-0.17809,0.08759,-0.30954,-0.08495,-0.04340,1.83638,0.03914,-0.02269,1.92695,0.55364,0.00295,-0.29980,-0.66890,-3.33463,715.04467,817.48443,0.45870,13.98606,0.66890,-0.20268,6.52200,7.34322,7.14053
69.79499,0.24967,0.01226,-0.45356,-0.17809,0.08759,-0.30954,-0.08495,-0.04340,1.83638,0.03914,-0.02269,1.92695,0.55364,0.00295,-0.29980,-0.66890,-3.33463,715.04467,813.77874,0.45870,13.98611,0.66890,-0.20734,6.52200,7.34322,7.13587
69.79599,0.24967,0.01226,-0.45356,-0.18617,0.09273,-0.31122,-0.08495,-0.04340,1.83638,0.03914,-0.02269,1.92695,0.55364,0.00295,-0.29980,-0.66890,-3.33027,714.57781,813.77874,0.45831,13.98616,0.66890,-0.21200,6.52200,7.34322,7.13121
69.79699,0.24967,0.01226,-0.45356,-0.18617,0.09273,-0.31122,-0.08495,-0.04340,1.83638,0.03914,-0.02269,1.92695,0.55364,0.00295,-0.29980,-0.66890,-3.33027,714.57781,817.48443,0.45831,13.98622,0.66890,-0.21677,6.52200,7.34322,7.12644
69.79799,0.24967,0.01226,-0.45356,-0.19359,0.09409,-0.30785,-0.08495,-0.04340,1.83638,0.03914,-0.02269,1.92695,0.55364,0.00295,-0.29980,-0.66890,-3.32582,714.09985,817.48443,0.45792,13.98627,0.66890,-0.22154,6.52200,7.34322,7.12168
69.79900,0.24967,0.01226,-0.45356,-0.19359,0.09409,-0.30785,-0.08495,-0.04340,1.83638,0.03914,-0.02269,1.92695,0.55364,0.00295,-0.29980,-0.66890,-3.32582,714.09985,821.97613,0.45792,13.98633,0.66890,-0.22630,6.52200,7.34322,7.11691
69.80000,0.96264,0.24813,-0.44643,-0.19347,0.09749,-0.29975,-0.04039,-0.02961,1.83638,0.03695,-0.02162,1.92379,0.55349,0.00579,-0.29980,-0.66879,-3.31636,713.08398,817.48443,0.45708,13.98638,0.66879,-0.23108,6.52201,7.33251,7.10143
69.80100,0.96264,0.24813,-0.44643,-0.19347,0.09749,-0.29975,-0.04039,-0.02961,1.83638,0.03695,-0.02162,1.92379,0.55349,0.00579,-0.29980,-0.66879,-3.31636,713.08398,813.77874,0.45708,13.98643,0.66879,-0.23577,6.52201,7.33251,7.09674
69.80200,0.96264,0.24813,-0.44643,-0.19708,0.10209,-0.28510,-0.04039,-0.02961,1.83638,0.03695,-0.02162,1.92379,0.55349,0.00579,-0.29980,-0.66879,-3.31199,712.61315,813.77874,0.45668,13.98649,0.66879,-0.24046,6.52201,7.33251,7.09205
69.80300,0.96264,0.24813,-0.44643,-0.19708,0.10209,-0.28510,-0.04039,-0.02961,1.83638,0.03695,-0.02162,1.92379,0.55349,0.00579,-0.29980,-0.66879,-3.31199,712.61315,805.02056,0.45668,13.98655,0.66879,-0.24517,6.52201,7.33251,7.08734
69.80400,0.96264,0.24813,-0.44643,-0.20768,0.10191,-0.26403,-0.04039,-0.02961,1.83638,0.03695,-0.02162,1.92379,0.55349,0.00579,-0.29980,-0.66879,-3.30758,712.13903,805.02056,0.45629,13.98661,0.66879,-0.24989,6.52201,7.33251,7.08262
69.80500,0.96264,0.24813,-0.44643,-0.20768,0.10191,-0.26403,-0.04039,-0.02961,1.83638,0.03695,-0.02162,1.92379,0.55349,0.00579,-0.29980,-0.66879,-3.30758,712.13903,805.02056,0.45629,13.98667,0.66879,-0.25469,6.52201,7.33251,7.07782
69.80599,0.96264,0.24813,-0.44643,-0.21248,0.09944,-0.23661,-0.04039,-0.02961,1.83638,0.03695,-0.02162,1.92379,0.55349,0.00579,-0.29980,-0.66879,-3.30310,711.65600,802.14288,0.45589,13.98673,0.66879,-0.25949,6.52201,7.33251,7.07301
69.80699,0.96264,0.24813,-0.44643,-0.21248,0.09944,-0.23661,-0.04039,-0.02961,1.83638,0.03695,-0.02162,1.92379,0.55349,0.00579,-0.29980,-0.66879,-3.30310,711.65600,797.15625,0.45589,13.98680,0.66879,-0.26418,6.52201,7.33251,7.06833
69.80799,0.96264,0.24813,-0.44643,-0.21095,0.10177,-0.19923,-0.04039,-0.02961,1.83638,0.03695,-0.02162,1.92379,0.55349,0.00579,-0.29980,-0.66879,-3.29872,711.18475,795.74279,0.45549,13.98687,0.66879,-0.26886,6.52201,7.33251,7.06365
69.80899,0.96264,0.24813,-0.44643,-0.21095,0.10177,-0.19923,-0.04039,-0.02961,1.83638,0.03695,-0.02162,1.92379,0.55349,0.00579,-0.29980,-0.66879,-3.29872,711.18475,794.33441,0.45549,13.98694,0.66879,-0.27328,6.52201,7.33251,7.05923
69.80999,1.00917,0.28265,-0.43696,-0.21871,0.10590,-0.14950,-0.01605,-0.02094,1.83638,0.03447,-0.02048,1.92179,0.55335,0.00526,-0.29980,-0.66870,-3.29069,710.31854,792.93103,0.45477,13.98701,0.66870,-0.27771,6.52201,7.32417,7.04645
69.81099,1.00917,0.28265,-0.43696,-0.21871,0.10590,-0.14950,-0.01605,-0.02094,1.83638,0.03447,-0.02048,1.92179,0.55335,0.00526,-0.29980,-0.66870,-3.29069,710.31854,792.93103,0.45477,13.98709,0.66870,-0.28203,6.52201,7.32417,7.04214
69.81199,1.00917,0.28265,-0.43696,-0.23571,0.10336,-0.09182,-0.01605,-0.02094,1.83638,0.03447,-0.02048,1.92179,0.55335,0.00526,-0.29980,-0.66870,-3.28666,709.88305,792.93103,0.45441,13.98717,0.66870,-0.28635,6.52201,7.32417,7.03782
69.81300,1.00917,0.28265,-0.43696,-0.23571,0.10336,-0.09182,-0.01605,-0.02094,1.83638,0.03447,-0.02048,1.92179,0.55335,0.00526,-0.29980,-0.66870,-3.28666,709.88305,792.93103,0.45441,13.98725,0.66870,-0.29067,6.52201,7.32417,7.03350
69.81400,1.00917,0.28265,-0.43696,-0.24397,0.09618,-0.03184,-0.01605,-0.02094,1.83638,0.03447,-0.02048,1.92179,0.55335,0.00526,-0.29980,-0.66870,-3.28262,709.44732,792.93103,0.45405,13.98734,0.66870,-0.29499,6.52201,7.32417,7.02918
69.81500,1.00917,0.28265,-0.43696,-0.24397,0.09618,-0.03184,-0.01605,-0.02094,1.83638,0.03447,-0.02048,1.92179,0.55335,0.00526,-0.29980,-0.66870,-3.28262,709.44732,789.44403,0.45405,13.98743,0.66870,-0.29916,6.52201,7.32417,7.02501
69.81600,1.00917,0.28265,-0.43696,-0.24246,0.09352,0.03109,-0.01605,-0.02094,1.83638,0.03447,-0.02048,1.92179,0.55335,0.00526,-0.29980,-0.66870,-3.27873,709.02593,789.44403,0.45369,13.98753,0.66870,-0.30334,6.52201,7.32417,7.02083
69.81700,1.00917,0.28265,-0.43696,-0.24246,0.09352,0.03109,-0.01605,-0.02094,1.83638,0.03447,-0.02048,1.92179,0.55335,0.00526,-0.29980,-0.66870,-3.27873,709.02593,788.05786,0.45369,13.98762,0.66870,-0.30726,6.52201,7.32417,7.01691
69.81800,1.00917,0.28265,-0.43696,-0.24946,0.09534,0.09985,-0.01605,-0.02094,1.83638,0.03447,-0.02048,1.92179,0.55335,0.00526,-0.29980,-0.66870,-3.27506,708.62969,788.05786,0.45336,13.98773,0.66870,-0.31118,6.52201,7.32417,7.01299
69.81900,1.00917,0.28265,-0.43696,-0.24946,0.09534,0.09985,-0.01605,-0.02094,1.83638,0.03447,-0.02048,1.92179,0.55335,0.00526,-0.29980,-0.66870,-3.27506,708.62969,775.12774,0.45336,13.98784,0.66870,-0.31501,6.52201,7.32417,7.00916
69.81999,0.75883,0.16225,-0.43823,-0.26621,0.09395,0.17266,-0.01134,-0.02085,1.83638,0.03147,-0.01954,1.92298,0.55335,0.00526,-0.29980,-0.66870,-3.27126,708.21868,775.12774,0.45301,13.98795,0.66870,-0.31883,6.52201,7.32369,7.00485
69.82099,0.75883,0.16225,-0.43823,-0.26621,0.09395,0.17266,-0.01134,-0.02085,1.83638,0.03147,-0.01954,1.92298,0.55335,0.00526,-0.29980,-0.66870,-3.27126,708.21868,773.12475,0.45301,13.98806,0.66870,-0.32266,6.52201,7.32369,7.00102
69.82199,0.75883,0.16225,-0.43823,-0.27351,0.08947,0.24673,-0.01134,-0.02085,1.83638,0.03147,-0.01954,1.92298,0.55335,0.00526,-0.29980,-0.66870,-3.26768,707.83099,771.79522,0.45269,13.98818,0.66870,-0.32650,6.52201,7.32369,6.99719
69.82299,0.75883,0.16225,-0.43823,-0.27351,0.08947,0.24673,-0.01134,-0.02085,1.83638,0.03147,-0.01954,1.92298,0.55335,0.00526,-0.29980,-0.66870,-3.26768,707.83099,768.49133,0.45269,13.98831,0.66870,-0.33017,6.52201,7.32369,6.99351
69.82399,0.75883,0.16225,-0.43823,-0.26872,0.08881,0.32406,-0.01134,-0.02085,1.83638,0.03147,-0.01954,1.92298,0.55335,0.00526,-0.29980,-0.66870,-3.26425,707.45928,767.83392,0.45237,13.98844,0.66870,-0.33384,6.52201,7.32369,6.98984
69.82499,0.75883,0.16225,-0.43823,-0.26872,0.08881,0.32406,-0.01134,-0.02085,1.83638,0.03147,-0.01954,1.92298,0.55335,0.00526,-0.29980,-0.66870,-3.26425,707.45928,767.83392,0.45237,13.98858,0.66870,-0.33720,6.52201,7.32369,6.98649
69.82599,0.75883,0.16225,-0.43823,-0.27054,0.09110,0.40706,-0.01134,-0.02085,1.83638,0.03147,-0.01954,1.92298,0.55335,0.00526,-0.29980,-0.66870,-3.26112,707.11999,766.52252,0.45208,13.98872,0.66870,-0.34055,6.52201,7.32369,6.98314
69.82700,0.75883,0.16225,-0.43823,-0.27054,0.09110,0.40706,-0.01134,-0.02085,1.83638,0.03147,-0.01954,1.92298,0.55335,0.00526,-0.29980,-0.66870,-3.26112,707.11999,766.52252,0.45208,13.98887,0.66870,-0.34368,6.52201,7.32369,6.98000
69.82800,0.75883,0.16225,-0.43823,-0.28218,0.08848,0.49174,-0.01134,-0.02085,1.83638,0.03147,-0.01954,1.92298,0.55335,0.00526,-0.29980,-0.66870,-3.25820,706.80255,766.52252,0.45181,13.98903,0.66870,-0.34682,6.52201,7.32369,6.97687
69.82900,0.75883,0.16225,-0.43823,-0.28218,0.08848,0.49174,-0.01134,-0.02085,1.83638,0.03147,-0.01954,1.92298,0.55335,0.00526,-0.29980,-0.66870,-3.25820,706.80255,767.83392,0.45181,13.98920,0.66870,-0.34988,6.52201,7.32369,6.97381
69.83000,0.74836,0.18037,-0.46467,-0.28503,0.08103,0.57216,-0.00429,-0.01754,1.83638,0.02813,-0.01881,1.92828,0.55320,0.00567,-0.29980,-0.66860,-3.25610,706.57470,766.52252,0.45161,13.98937,0.66860,-0.35293,6.52201,7.32531,6.97237
69.83100,0.74836,0.18037,-0.46467,-0.28503,0.08103,0.57216,-0.00429,-0.01754,1.83638,0.02813,-0.01881,1.92828,0.55320,0.00567,-0.29980,-0.66860,-3.25610,706.57470,765.21557,0.45161,13.98955,0.66860,-0.35583,6.52201,7.32531,6.96947
69.83200,0.74836,0.18037,-0.46467,-0.27525,0.07703,0.64830,-0.00429,-0.01754,1.83638,0.02813,-0.01881,1.92828,0.55320,0.00567,-0.29980,-0.66860,-3.25339,706.28076,763.91308,0.45136,13.98974,0.66860,-0.35873,6.52201,7.32531,6.96657
69.83300,0.74836,0.18037,-0.46467,-0.27525,0.07703,0.64830,-0.00429,-0.01754,1.83638,0.02813,-0.01881,1.92828,0.55320,0.00567,-0.29980,-0.66860,-3.25339,706.28076,763.91308,0.45136,13.98993,0.66860,-0.36138,6.52201,7.32531,6.96393
69.83399,0.74836,0.18037,-0.46467,-0.27220,0.07762,0.72322,-0.00429,-0.01754,1.83638,0.02813,-0.01881,1.92828,0.55320,0.00567,-0.29980,-0.66860,-3.25092,706.01293,760.03204,0.45112,13.99013,0.66860,-0.36402,6.52201,7.32531,6.96129
69.83499,0.74836,0.18037,-0.46467,-0.27220,0.07762,0.72322,-0.00429,-0.01754,1.83638,0.02813,-0.01881,1.92828,0.55320,0.00567,-0.29980,-0.66860,-3.25092,706.01293,755.55377,0.45112,13.99034,0.66860,-0.36655,6.52201,7.32531,6.95876
69.83599,0.74836,0.18037,-0.46467,-0.28150,0.07477,0.79584,-0.00429,-0.01754,1.83638,0.02813,-0.01881,1.92828,0.55320,0.00567,-0.29980,-0.66860,-3.24856,705.75622,757.46655,0.45090,13.99056,0.66860,-0.36908,6.52201,7.32531,6.95623
69.83699,0.74836,0.18037,-0.46467,-0.28150,0.07477,0.79584,-0.00429,-0.01754,1.83638,0.02813,-0.01881,1.92828,0.55320,0.00567,-0.29980,-0.66860,-3.24856,705.75622,749.24700,0.45090,13.99078,0.66860,-0.37168,6.52201,7.32531,6.95363
69.83799,0.74836,0.18037,-0.46467,-0.28370,0.06674,0.86351,-0.00429,-0.01754,1.83638,0.02813,-0.01881,1.92828,0.55320,0.00567,-0.29980,-0.66860,-3.24613,705.49243,757.46655,0.45067,13.99102,0.66860,-0.37428,6.52201,7.32531,6.95103
69.83899,0.74836,0.18037,-0.46467,-0.28370,0.06674,0.86351,-0.00429,-0.01754,1.83638,0.02813,-0.01881,1.92828,0.55320,0.00567,-0.29980,-0.66860,-3.24613,705.49243,757.46655,0.45067,13.99126,0.66860,-0.37684,6.52201,7.32531,6.94847
69.83999,0.62908,0.10997,-0.50815,-0.27141,0.06196,0.92856,-0.00540,-0.01886,1.83638,0.02476,-0.01832,1.93745,0.55320,0.00567,-0.29980,-0.66860,-3.24384,705.24346,749.24700,0.45045,13.99150,0.66860,-0.37940,6.52201,7.32553,6.94612
69.84100,0.62908,0.10997,-0.50815,-0.27141,0.06196,0.92856,-0.00540,-0.01886,1.83638,0.02476,-0.01832,1.93745,0.55320,0.00567,-0.29980,-0.66860,-3.24384,705.24346,746.75366,0.45045,13.99176,0.66860,-0.38170,6.52201,7.32553,6.94382
69.84200,0.62908,0.10997,-0.50815,-0.26448,0.06362,0.99490,-0.00540,-0.01886,1.83638,0.02476,-0.01832,1.93745,0.55320,0.00567,-0.29980,-0.66860,-3.24168,705.00927,746.75366,0.45024,13.99203,0.66860,-0.38401,6.52201,7.32553,6.94151
69.84300,0.62908,0.10997,-0.50815,-0.26448,0.06362,0.99490,-0.00540,-0.01886,1.83638,0.02476,-0.01832,1.93745,0.55320,0.00567,-0.29980,-0.66860,-3.24168,705.00927,746.75366,0.45024,13.99231,0.66860,-0.38608,6.52201,7.32553,6.93944
69.84400,0.62908,0.10997,-0.50815,-0.27327,0.06330,1.06023,-0.00540,-0.01886,1.83638,0.02476,-0.01832,1.93745,0.55320,0.00567,-0.29980,-0.66860,-3.23975,704.79888,746.75366,0.45004,13.99259,0.66860,-0.38815,6.52201,7.32553,6.93737
69.84500,0.62908,0.10997,-0.50815,-0.27327,0.06330,1.06023,-0.00540,-0.01886,1.83638,0.02476,-0.01832,1.93745,0.55320,0.00567,-0.29980,-0.66860,-3.23975,704.79888,746.75366,0.45004,13.99289,0.66860,-0.39016,6.52201,7.32553,6.93537
69.84600,0.62908,0.10997,-0.50815,-0.27839,0.05577,1.11880,-0.00540,-0.01886,1.83638,0.02476,-0.01832,1.93745,0.55320,0.00567,-0.29980,-0.66860,-3.23788,704.59552,746.75366,0.44986,13.99320,0.66860,-0.39216,6.52201,7.32553,6.93337
69.84700,0.62908,0.10997,-0.50815,-0.27839,0.05577,1.11880,-0.00540,-0.01886,1.83638,0.02476,-0.01832,1.93745,0.55320,0.00567,-0.29980,-0.66860,-3.23788,704.59552,746.75366,0.44986,13.99351,0.66860,-0.39408,6.52201,7.32553,6.93144
69.84799,0.62908,0.10997,-0.50815,-0.26539,0.04807,1.17027,-0.00540,-0.01886,1.83638,0.02476,-0.01832,1.93745,0.55320,0.00567,-0.29980,-0.66860,-3.23608,704.40008,746.75366,0.44967,13.99384,0.66860,-0.39600,6.52201,7.32553,6.92952
69.84899,0.62908,0.10997,-0.50815,-0.26539,0.04807,1.17027,-0.00540,-0.01886,1.83638,0.02476,-0.01832,1.93745,0.55320,0.00567,-0.29980,-0.66860,-3.23608,704.40008,746.75366,0.44967,13.99418,0.66860,-0.39771,6.52201,7.32553,6.92782
69.84999,0.46567,0.14301,-0.56907,-0.25100,0.04679,1.21891,-0.01327,-0.01687,1.83638,0.02152,-0.01802,1.94957,0.55304,0.01100,-0.29980,-0.66849,-3.24617,705.49676,746.75366,0.45056,13.99454,0.66849,-0.39936,6.52201,7.35048,6.95111
69.85099,0.46567,0.14301,-0.56907,-0.25100,0.04679,1.21891,-0.01327,-0.01687,1.83638,0.02152,-0.01802,1.94957,0.55304,0.01100,-0.29980,-0.66849,-3.24617,705.49676,746.75366,0.45056,13.99490,0.66849,-0.40082,6.52201,7.35048,6.94966
69.85199,0.46567,0.14301,-0.56907,-0.25289,0.04705,1.26539,-0.01327,-0.01687,1.83638,0.02152,-0.01802,1.94957,0.55304,0.01100,-0.29980,-0.66849,-3.24480,705.34857,744.89453,0.45041,13.99527,0.66849,-0.40228,6.52201,7.35048,6.94820
69.85299,0.46567,0.14301,-0.56907,-0.25289,0.04705,1.26539,-0.01327,-0.01687,1.83638,0.02152,-0.01802,1.94957,0.55304,0.01100,-0.29980,-0.66849,-3.24480,705.34857,744.89453,0.45041,13.99566,0.66849,-0.40373,6.52201,7.35048,6.94675
69.85399,0.46567,0.14301,-0.56907,-0.25860,0.04281,1.30662,-0.01327,-0.01687,1.83638,0.02152,-0.01802,1.94957,0.55304,0.01100,-0.29980,-0.66849,-3.24345,705.20147,744.27685,0.45026,13.99606,0.66849,-0.40518,6.52201,7.35048,6.94530
69.85500,0.46567,0.14301,-0.56907,-0.25860,0.04281,1.30662,-0.01327,-0.01687,1.83638,0.02152,-0.01802,1.94957,0.55304,0.01100,-0.29980,-0.66849,-3.24345,705.20147,744.27685,0.45026,13.99647,0.66849,-0.40661,6.52201,7.35048,6.94386
69.85600,0.46567,0.14301,-0.56907,-0.24993,0.03898,1.34311,-0.01327,-0.01687,1.83638,0.02152,-0.01802,1.94957,0.55304,0.01100,-0.29980,-0.66849,-3.24211,705.05566,744.27685,0.45012,13.99689,0.66849,-0.40805,6.52201,7.35048,6.94243
69.85700,0.46567,0.14301,-0.56907,-0.24993,0.03898,1.34311,-0.01327,-0.01687,1.83638,0.02152,-0.01802,1.94957,0.55304,0.01100,-0.29980,-0.66849,-3.24211,705.05566,744.27685,0.45012,13.99733,0.66849,-0.40923,6.52201,7.35048,6.94124
69.85800,0.46567,0.14301,-0.56907,-0.23659,0.04225,1.37919,-0.01327,-0.01687,1.83638,0.02152,-0.01802,1.94957,0.55304,0.01100,-0.29980,-0.66849,-3.24100,704.93548,744.27685,0.44999,13.99777,0.66849,-0.41041,6.52201,7.35048,6.94006
69.85900,0.46567,0.14301,-0.56907,-0.23659,0.04225,1.37919,-0.01327,-0.01687,1.83638,0.02152,-0.01802,1.94957,0.55304,0.01100,-0.29980,-0.66849,-3.24100,704.93548,744.27685,0.44999,13.99824,0.66849,-0.41126,6.52201,7.35048,6.93921
69.86000,0.43078,0.32455,-0.64214,-0.23741,0.04706,1.41493,-0.01892,-0.00636,1.83638,0.01848,-0.01778,1.96361,0.55244,0.02078,-0.29980,-0.66809,-3.26197,707.21215,743.04461,0.45184,13.99871,0.66809,-0.41201,6.52201,7.39698,6.98496
69.86100,0.43078,0.32455,-0.64214,-0.23741,0.04706,1.41493,-0.01892,-0.00636,1.83638,0.01848,-0.01778,1.96361,0.55244,0.02078,-0.29980,-0.66809,-3.26197,707.21215,736.94409,0.45184,13.99919,0.66809,-0.41267,6.52201,7.39698,6.98431
69.86199,0.43078,0.32455,-0.64214,-0.24452,0.04390,1.44509,-0.01892,-0.00636,1.83638,0.01848,-0.01778,1.96361,0.55244,0.02078,-0.29980,-0.66809,-3.26136,707.14587,736.94409,0.45175,13.99969,0.66809,-0.41332,6.52201,7.39698,6.98365
69.86299,0.43078,0.32455,-0.64214,-0.24452,0.04390,1.44509,-0.01892,-0.00636,1.83638,0.01848,-0.01778,1.96361,0.55244,0.02078,-0.29980,-0.66809,-3.26136,707.14587,736.94409,0.45175,14.00020,0.66809,-0.41406,6.52201,7.39698,6.98291
69.86399,0.43078,0.32455,-0.64214,-0.23692,0.03670,1.46806,-0.01892,-0.00636,1.83638,0.01848,-0.01778,1.96361,0.55244,0.02078,-0.29980,-0.66809,-3.26067,707.07104,743.04461,0.45165,14.00072,0.66809,-0.41480,6.52201,7.39698,6.98217
69.86499,0.43078,0.32455,-0.64214,-0.23692,0.03670,1.46806,-0.01892,-0.00636,1.83638,0.01848,-0.01778,1.96361,0.55244,0.02078,-0.29980,-0.66809,-3.26067,707.07104,732.73297,0.45165,14.00125,0.66809,-0.41549,6.52201,7.39698,6.98149
69.86599,0.43078,0.32455,-0.64214,-0.21938,0.03716,1.48910,-0.01892,-0.00636,1.83638,0.01848,-0.01778,1.96361,0.55244,0.02078,-0.29980,-0.66809,-3.26003,707.00115,741.81640,0.45156,14.00180,0.66809,-0.41618,6.52201,7.39698,6.98080
69.86699,0.43078,0.32455,-0.64214,-0.21938,0.03716,1.48910,-0.01892,-0.00636,1.83638,0.01848,-0.01778,1.96361,0.55244,0.02078,-0.29980,-0.66809,-3.26003,707.00115,741.81640,0.45156,14.00236,0.66809,-0.41667,6.52201,7.39698,6.98030
69.86799,0.43078,0.32455,-0.64214,-0.21574,0.04460,1.51173,-0.01892,-0.00636,1.83638,0.01848,-0.01778,1.96361,0.55244,0.02078,-0.29980,-0.66809,-3.25957,706.95135,741.81640,0.45148,14.00294,0.66809,-0.41716,6.52201,7.39698,6.97981
69.86900,0.43078,0.32455,-0.64214,-0.21574,0.04460,1.51173,-0.01892,-0.00636,1.83638,0.01848,-0.01778,1.96361,0.55244,0.02078,-0.29980,-0.66809,-3.25957,706.95135,741.81640,0.45148,14.00353,0.66809,-0.41761,6.52201,7.39698,6.97937
69.87000,0.47944,0.26154,-0.71606,-0.22694,0.04659,1.53221,-0.02072,-0.00458,1.83638,0.01562,-0.01750,1.97878,0.55110,0.04453,-0.29980,-0.66720,-3.31212,712.62683,739.98181,0.45612,14.00413,0.66720,-0.41782,6.52202,7.51016,7.09234
69.87100,0.47944,0.26154,-0.71606,-0.22694,0.04659,1.53221,-0.02072,-0.00458,1.83638,0.01562,-0.01750,1.97878,0.55110,0.04453,-0.29980,-0.66720,-3.31212,712.62683,732.73297,0.45612,14.00474,0.66720,-0.41820,6.52202,7.51016,7.09196
69.87200,0.47944,0.26154,-0.71606,-0.22861,0.03983,1.54667,-0.02072,-0.00458,1.83638,0.01562,-0.01750,1.97878,0.55110,0.04453,-0.29980,-0.66720,-3.31177,712.58874,732.73297,0.45605,14.00536,0.66720,-0.41858,6.52202,7.51016,7.09158
69.87300,0.47944,0.26154,-0.71606,-0.22861,0.03983,1.54667,-0.02072,-0.00458,1.83638,0.01562,-0.01750,1.97878,0.55110,0.04453,-0.29980,-0.66720,-3.31177,712.58874,731.53863,0.45605,14.00600,0.66720,-0.41905,6.52202,7.51016,7.09111
69.87400,0.47944,0.26154,-0.71606,-0.21334,0.03540,1.55818,-0.02072,-0.00458,1.83638,0.01562,-0.01750,1.97878,0.55110,0.04453,-0.29980,-0.66720,-3.31133,712.54156,731.53863,0.45597,14.00666,0.66720,-0.41952,6.52202,7.51016,7.09064
69.87500,0.47944,0.26154,-0.71606,-0.21334,0.03540,1.55818,-0.02072,-0.00458,1.83638,0.01562,-0.01750,1.97878,0.55110,0.04453,-0.29980,-0.66720,-3.31133,712.54156,731.53863,0.45597,14.00732,0.66720,-0.41983,6.52202,7.51016,7.09033
69.87599,0.47944,0.26154,-0.71606,-0.20340,0.03957,1.57096,-0.02072,-0.00458,1.83638,0.01562,-0.01750,1.97878,0.55110,0.04453,-0.29980,-0.66720,-3.31104,712.51043,727.38891,0.45590,14.00800,0.66720,-0.42014,6.52202,7.51016,7.09002
69.87699,0.47944,0.26154,-0.71606,-0.20340,0.03957,1.57096,-0.02072,-0.00458,1.83638,0.01562,-0.01750,1.97878,0.55110,0.04453,-0.29980,-0.66720,-3.31104,712.51043,731.53863,0.45590,14.00870,0.66720,-0.42027,6.52202,7.51016,7.08989
69.87799,0.47944,0.26154,-0.71606,-0.21164,0.04324,1.58227,-0.02072,-0.00458,1.83638,0.01562,-0.01750,1.97878,0.55110,0.04453,-0.29980,-0.66720,-3.31091,712.49700,731.53863,0.45584,14.00941,0.66720,-0.42040,6.52202,7.51016,7.08975
69.87899,0.47944,0.26154,-0.71606,-0.21164,0.04324,1.58227,-0.02072,-0.00458,1.83638,0.01562,-0.01750,1.97878,0.55110,0.04453,-0.29980,-0.66720,-3.31091,712.49700,727.38891,0.45584,14.01013,0.66720,-0.42056,6.52202,7.51016,7.08959
69.87999,0.62552,0.11347,-0.79207,-0.21951,0.03828,1.58695,-0.01589,-0.00977,1.83638,0.01283,-0.01720,1.99451,0.55110,0.04453,-0.29980,-0.66720,-3.31058,712.46148,731.53863,0.45576,14.01087,0.66720,-0.42073,6.52202,7.50978,7.08905
69.88099,0.62552,0.11347,-0.79207,-0.21951,0.03828,1.58695,-0.01589,-0.00977,1.83638,0.01283,-0.01720,1.99451,0.55110,0.04453,-0.29980,-0.66720,-3.31058,712.46148,727.38891,0.45576,14.01162,0.66720,-0.42095,6.52202,7.50978,7.08882
69.88200,0.62552,0.11347,-0.79207,-0.21006,0.03170,1.58663,-0.01589,-0.00977,1.83638,0.01283,-0.01720,1.99451,0.55110,0.04453,-0.29980,-0.66720,-3.31037,712.43865,731.53863,0.45570,14.01239,0.66720,-0.42118,6.52202,7.50978,7.08859
69.88300,0.62552,0.11347,-0.79207,-0.21006,0.03170,1.58663,-0.01589,-0.00977,1.83638,0.01283,-0.01720,1.99451,0.55110,0.04453,-0.29980,-0.66720,-3.31037,712.43865,731.53863,0.45570,14.01317,0.66720,-0.42129,6.52202,7.50978,7.08849
69.88400,0.62552,0.11347,-0.79207,-0.19711,0.03302,1.58745,-0.01589,-0.00977,1.83638,0.01283,-0.01720,1.99451,0.55110,0.04453,-0.29980,-0.66720,-3.31027,712.42773,727.38891,0.45564,14.01397,0.66720,-0.42140,6.52202,7.50978,7.08838
69.88500,0.62552,0.11347,-0.79207,-0.19711,0.03302,1.58745,-0.01589,-0.00977,1.83638,0.01283,-0.01720,1.99451,0.55110,0.04453,-0.29980,-0.66720,-3.31027,712.42773,721.54168,0.45564,14.01478,0.66720,-0.42134,6.52202,7.50978,7.08844
69.88600,0.62552,0.11347,-0.79207,-0.20008,0.03761,1.58975,-0.01589,-0.00977,1.83638,0.01283,-0.01720,1.99451,0.55110,0.04453,-0.29980,-0.66720,-3.31033,712.43389,725.03869,0.45559,14.01560,0.66720,-0.42127,6.52202,7.50978,7.08850
69.88700,0.62552,0.11347,-0.79207,-0.20008,0.03761,1.58975,-0.01589,-0.00977,1.83638,0.01283,-0.01720,1.99451,0.55110,0.04453,-0.29980,-0.66720,-3.31033,712.43389,725.03869,0.45559,14.01644,0.66720,-0.42124,6.52202,7.50978,7.08853
69.88800,0.62552,0.11347,-0.79207,-0.20971,0.03575,1.58754,-0.01589,-0.00977,1.83638,0.01283,-0.01720,1.99451,0.55110,0.04453,-0.29980,-0.66720,-3.31036,712.43701,733.93121,0.45554,14.01730,0.66720,-0.42121,6.52202,7.50978,7.08856
69.88899,0.62552,0.11347,-0.79207,-0.20971,0.03575,1.58754,-0.01589,-0.00977,1.83638,0.01283,-0.01720,1.99451,0.55110,0.04453,-0.29980,-0.66720,-3.31036,712.43701,733.93121,0.45554,14.01817,0.66720,-0.42132,6.52202,7.50978,7.08846
69.88999,0.50269,0.21694,-0.87144,-0.20490,0.03061,1.57871,-0.02163,-0.00578,1.83638,0.01014,-0.01692,2.01025,0.54900,0.07363,-0.29980,-0.66580,-3.37624,719.49084,733.93121,0.46128,14.01905,0.66580,-0.42114,6.52203,7.65078,7.22964
69.89099,0.50269,0.21694,-0.87144,-0.20490,0.03061,1.57871,-0.02163,-0.00578,1.83638,0.01014,-0.01692,2.01025,0.54900,0.07363,-0.29980,-0.66580,-3.37624,719.49084,733.93121,0.46128,14.01995,0.66580,-0.42092,6.52203,7.65078,7.22986
69.89199,0.50269,0.21694,-0.87144,-0.19022,0.03272,1.56816,-0.02163,-0.00578,1.83638,0.01014,-0.01692,2.01025,0.54900,0.07363,-0.29980,-0.66580,-3.37645,719.51300,725.03869,0.46124,14.02087,0.66580,-0.42070,6.52203,7.65078,7.23008
69.89299,0.50269,0.21694,-0.87144,-0.19022,0.03272,1.56816,-0.02163,-0.00578,1.83638,0.01014,-0.01692,2.01025,0.54900,0.07363,-0.29980,-0.66580,-3.37645,719.51300,725.03869,0.46124,14.02180,0.66580,-0.42027,6.52203,7.65078,7.23051
69.89399,0.50269,0.21694,-0.87144,-0.18768,0.04056,1.55897,-0.02163,-0.00578,1.83638,0.01014,-0.01692,2.01025,0.54900,0.07363,-0.29980,-0.66580,-3.37685,719.55566,725.03869,0.46121,14.02274,0.66580,-0.41984,6.52203,7.65078,7.23094
69.89499,0.50269,0.21694,-0.87144,-0.18768,0.04056,1.55897,-0.02163,-0.00578,1.83638,0.01014,-0.01692,2.01025,0.54900,0.07363,-0.29980,-0.66580,-3.37685,719.55566,725.03869,0.46121,14.02370,0.66580,-0.41936,6.52203,7.65078,7.23142
69.89600,0.50269,0.21694,-0.87144,-0.19752,0.04226,1.54739,-0.02163,-0.00578,1.83638,0.01014,-0.01692,2.01025,0.54900,0.07363,-0.29980,-0.66580,-3.37730,719.60357,734.53186,0.46119,14.02467,0.66580,-0.41888,6.52203,7.65078,7.23190
69.89700,0.50269,0.21694,-0.87144,-0.19752,0.04226,1.54739,-0.02163,-0.00578,1.83638,0.01014,-0.01692,2.01025,0.54900,0.07363,-0.29980,-0.66580,-3.37730,719.60357,734.53186,0.46119,14.02566,0.66580,-0.41855,6.52203,7.65078,7.23223
69.89800,0.50269,0.21694,-0.87144,-0.19794,0.03640,1.53016,-0.02163,-0.00578,1.83638,0.01014,-0.01692,2.01025,0.54900,0.07363,-0.29980,-0.66580,-3.37760,719.63592,734.53186,0.46115,14.02666,0.66580,-0.41822,6.52203,7.65078,7.23255
69.89900,0.50269,0.21694,-0.87144,-0.19794,0.03640,1.53016,-0.02163,-0.00578,1.83638,0.01014,-0.01692,2.01025,0.54900,0.07363,-0.29980,-0.66580,-3.37760,719.63592,734.53186,0.46115,14.02768,0.66580,-0.41798,6.52203,7.65078,7.23279
69.90000,0.63713,0.12521,-0.94590,-0.18399,0.03507,1.51085,-0.01737,-0.00926,1.83638,0.00761,-0.01651,2.02539,0.54900,0.07363,-0.29980,-0.66580,-3.37762,719.63830,733.33160,0.46109,14.02871,0.66580,-0.41774,6.52203,7.65035,7.23260
69.90100,0.63713,0.12521,-0.94590,-0.18399,0.03507,1.51085,-0.01737,-0.00926,1.83638,0.00761,-0.01651,2.02539,0.54900,0.07363,-0.29980,-0.66580,-3.37762,719.63830,728.56976,0.46109,14.02976,0.66580,-0.41738,6.52203,7.65035,7.23296
69.90200,0.63713,0.12521,-0.94590,-0.17647,0.04338,1.49373,-0.01737,-0.00926,1.83638,0.00761,-0.01651,2.02539,0.54900,0.07363,-0.29980,-0.66580,-3.37796,719.67449,728.56976,0.46105,14.03082,0.66580,-0.41701,6.52203,7.65035,7.23333
69.90299,0.63713,0.12521,-0.94590,-0.17647,0.04338,1.49373,-0.01737,-0.00926,1.83638,0.00761,-0.01651,2.02539,0.54900,0.07363,-0.29980,-0.66580,-3.37796,719.67449,728.56976,0.46105,14.03189,0.66580,-0.41654,6.52203,7.65035,7.23381
69.90399,0.63713,0.12521,-0.94590,-0.18495,0.05087,1.47612,-0.01737,-0.00926,1.83638,0.00761,-0.01651,2.02539,0.54900,0.07363,-0.29980,-0.66580,-3.37841,719.72216,728.56976,0.46101,14.03297,0.66580,-0.41606,6.52203,7.65035,7.23429
69.90499,0.63713,0.12521,-0.94590,-0.18495,0.05087,1.47612,-0.01737,-0.00926,1.83638,0.00761,-0.01651,2.02539,0.54900,0.07363,-0.29980,-0.66580,-3.37841,719.72216,728.56976,0.46101,14.03408,0.66580,-0.41565,6.52203,7.65035,7.23469
69.90599,0.63713,0.12521,-0.94590,-0.19035,0.04958,1.45293,-0.01737,-0.00926,1.83638,0.00761,-0.01651,2.02539,0.54900,0.07363,-0.29980,-0.66580,-3.37879,719.76287,733.33160,0.46097,14.03520,0.66580,-0.41524,6.52203,7.65035,7.23510
69.90699,0.63713,0.12521,-0.94590,-0.19035,0.04958,1.45293,-0.01737,-0.00926,1.83638,0.00761,-0.01651,2.02539,0.54900,0.07363,-0.29980,-0.66580,-3.37879,719.76287,733.33160,0.46097,14.03633,0.66580,-0.41489,6.52203,7.65035,7.23546
69.90799,0.63713,0.12521,-0.94590,-0.17816,0.04694,1.42571,-0.01737,-0.00926,1.83638,0.00761,-0.01651,2.02539,0.54900,0.07363,-0.29980,-0.66580,-3.37912,719.79797,729.16156,0.46093,14.03747,0.66580,-0.41453,6.52203,7.65035,7.23581
69.90899,0.63713,0.12521,-0.94590,-0.17816,0.04694,1.42571,-0.01737,-0.00926,1.83638,0.00761,-0.01651,2.02539,0.54900,0.07363,-0.29980,-0.66580,-3.37912,719.79797,729.16156,0.46093,14.03864,0.66580,-0.41401,6.52203,7.65035,7.23634
69.91000,0.62890,0.16766,-1.01624,-0.16440,0.05138,1.40020,-0.01729,-0.00807,1.83638,0.00525,-0.01592,2.03948,0.54615,0.10546,-0.29980,-0.66389,-3.45261,727.58227,729.16156,0.46725,14.03981,0.66389,-0.41317,6.52204,7.80635,7.39318
69.91100,0.62890,0.16766,-1.01624,-0.16440,0.05138,1.40020,-0.01729,-0.00807,1.83638,0.00525,-0.01592,2.03948,0.54615,0.10546,-0.29980,-0.66389,-3.45261,727.58227,729.16156,0.46725,14.04099,0.66389,-0.41212,6.52204,7.80635,7.39423
69.91200,0.62890,0.16766,-1.01624,-0.16804,0.05700,1.37651,-0.01729,-0.00807,1.83638,0.00525,-0.01592,2.03948,0.54615,0.10546,-0.29980,-0.66389,-3.45359,727.68560,729.16156,0.46725,14.04219,0.66389,-0.41107,6.52204,7.80635,7.39528
69.91300,0.62890,0.16766,-1.01624,-0.16804,0.05700,1.37651,-0.01729,-0.00807,1.83638,0.00525,-0.01592,2.03948,0.54615,0.10546,-0.29980,-0.66389,-3.45359,727.68560,729.16156,0.46725,14.04341,0.66389,-0.41004,6.52204,7.80635,7.39630
69.91400,0.62890,0.16766,-1.01624,-0.17753,0.05481,1.34907,-0.01729,-0.00807,1.83638,0.00525,-0.01592,2.03948,0.54615,0.10546,-0.29980,-0.66389,-3.45455,727.78643,729.16156,0.46725,14.04463,0.66389,-0.40902,6.52204,7.80635,7.39732
69.91500,0.62890,0.16766,-1.01624,-0.17753,0.05481,1.34907,-0.01729,-0.00807,1.83638,0.00525,-0.01592,2.03948,0.54615,0.10546,-0.29980,-0.66389,-3.45455,727.78643,729.16156,0.46725,14.04587,0.66389,-0.40814,6.52204,7.80635,7.39820
69.91600,0.62890,0.16766,-1.01624,-0.17055,0.04983,1.31628,-0.01729,-0.00807,1.83638,0.00525,-0.01592,2.03948,0.54615,0.10546,-0.29980,-0.66389,-3.45537,727.87243,729.16156,0.46724,14.04712,0.66389,-0.40727,6.52204,7.80635,7.39907
69.91699,0.62890,0.16766,-1.01624,-0.17055,0.04983,1.31628,-0.01729,-0.00807,1.83638,0.00525,-0.01592,2.03948,0.54615,0.10546,-0.29980,-0.66389,-3.45537,727.87243,735.13342,0.46724,14.04838,0.66389,-0.40636,6.52204,7.80635,7.39998
69.91799,0.62890,0.16766,-1.01624,-0.15302,0.05309,1.28291,-0.01729,-0.00807,1.83638,0.00525,-0.01592,2.03948,0.54615,0.10546,-0.29980,-0.66389,-3.45621,727.96173,729.16156,0.46723,14.04966,0.66389,-0.40545,6.52204,7.80635,7.40089
69.91899,0.62890,0.16766,-1.01624,-0.15302,0.05309,1.28291,-0.01729,-0.00807,1.83638,0.00525,-0.01592,2.03948,0.54615,0.10546,-0.29980,-0.66389,-3.45621,727.96173,729.16156,0.46723,14.05095,0.66389,-0.40437,6.52204,7.80635,7.40197
69.91999,0.66505,0.13007,-1.07900,-0.14867,0.06245,1.25119,-0.01560,-0.00978,1.83638,0.00309,-0.01518,2.05213,0.54615,0.10546,-0.29980,-0.66389,-3.45718,728.06341,729.16156,0.46723,14.05225,0.66389,-0.40329,6.52204,7.80625,7.40296
69.92099,0.66505,0.13007,-1.07900,-0.14867,0.06245,1.25119,-0.01560,-0.00978,1.83638,0.00309,-0.01518,2.05213,0.54615,0.10546,-0.29980,-0.66389,-3.45718,728.06341,720.96215,0.46723,14.05356,0.66389,-0.40221,6.52204,7.80625,7.40404
69.92199,0.66505,0.13007,-1.07900,-0.15781,0.06609,1.21679,-0.01560,-0.00978,1.83638,0.00309,-0.01518,2.05213,0.54615,0.10546,-0.29980,-0.66389,-3.45819,728.16986,735.73596,0.46723,14.05488,0.66389,-0.40112,6.52204,7.80625,7.40512
69.92299,0.66505,0.13007,-1.07900,-0.15781,0.06609,1.21679,-0.01560,-0.00978,1.83638,0.00309,-0.01518,2.05213,0.54615,0.10546,-0.29980,-0.66389,-3.45819,728.16986,720.96215,0.46723,14.05622,0.66389,-0.40025,6.52204,7.80625,7.40600
69.92400,0.66505,0.13007,-1.07900,-0.15796,0.06303,1.17690,-0.01560,-0.00978,1.83638,0.00309,-0.01518,2.05213,0.54615,0.10546,-0.29980,-0.66389,-3.45901,728.25573,735.73596,0.46721,14.05757,0.66389,-0.39938,6.52204,7.80625,7.40687
69.92500,0.66505,0.13007,-1.07900,-0.15796,0.06303,1.17690,-0.01560,-0.00978,1.83638,0.00309,-0.01518,2.05213,0.54615,0.10546,-0.29980,-0.66389,-3.45901,728.25573,735.73596,0.46721,14.05893,0.66389,-0.39860,6.52204,7.80625,7.40764
69.92600,0.66505,0.13007,-1.07900,-0.14470,0.06462,1.13595,-0.01560,-0.00978,1.83638,0.00309,-0.01518,2.05213,0.54615,0.10546,-0.29980,-0.66389,-3.45973,728.33203,735.73596,0.46718,14.06030,0.66389,-0.39782,6.52204,7.80625,7.40842
69.92700,0.66505,0.13007,-1.07900,-0.14470,0.06462,1.13595,-0.01560,-0.00978,1.83638,0.00309,-0.01518,2.05213,0.54615,0.10546,-0.29980,-0.66389,-3.45973,728.33203,735.73596,0.46718,14.06169,0.66389,-0.39692,6.52204,7.80625,7.40932
69.92800,0.66505,0.13007,-1.07900,-0.13977,0.07390,1.09831,-0.01560,-0.00978,1.83638,0.00309,-0.01518,2.05213,0.54615,0.10546,-0.29980,-0.66389,-3.46057,728.42083,735.73596,0.46716,14.06309,0.66389,-0.39602,6.52204,7.80625,7.41023
69.92900,0.66505,0.13007,-1.07900,-0.13977,0.07390,1.09831,-0.01560,-0.00978,1.83638,0.00309,-0.01518,2.05213,0.54615,0.10546,-0.29980,-0.66389,-3.46057,728.42083,735.73596,0.46716,14.06451,0.66389,-0.39506,6.52204,7.80625,7.41119
69.93000,0.70969,0.15231,-1.13261,-0.15218,0.07945,1.06049,-0.01297,-0.00915,1.83638,0.00110,-0.01426,2.06289,0.54375,0.13712,-0.29980,-0.66230,-3.53303,736.00646,735.73596,0.47329,14.06593,0.66230,-0.39379,6.52206,7.95918,7.56539
69.93099,0.70969,0.15231,-1.13261,-0.15218,0.07945,1.06049,-0.01297,-0.00915,1.83638,0.00110,-0.01426,2.06289,0.54375,0.13712,-0.29980,-0.66230,-3.53303,736.00646,739.37219,0.47329,14.06737,0.66230,-0.39272,6.52206,7.95918,7.56645
69.93199,0.70969,0.15231,-1.13261,-0.16126,0.07521,1.01695,-0.01297,-0.00915,1.83638,0.00110,-0.01426,2.06289,0.54375,0.13712,-0.29980,-0.66230,-3.53403,736.11041,735.73596,0.47327,14.06882,0.66230,-0.39165,6.52206,7.95918,7.56752
69.93299,0.70969,0.15231,-1.13261,-0.16126,0.07521,1.01695,-0.01297,-0.00915,1.83638,0.00110,-0.01426,2.06289,0.54375,0.13712,-0.29980,-0.66230,-3.53403,736.11041,735.73596,0.47327,14.07028,0.66230,-0.39078,6.52206,7.95918,7.56839
69.93399,0.70969,0.15231,-1.13261,-0.15236,0.07140,0.96983,-0.01297,-0.00915,1.83638,0.00110,-0.01426,2.06289,0.54375,0.13712,-0.29980,-0.66230,-3.53484,736.19525,738.15612,0.47325,14.07176,0.66230,-0.38991,6.52206,7.95918,7.56927
69.93499,0.70969,0.15231,-1.13261,-0.15236,0.07140,0.96983,-0.01297,-0.00915,1.83638,0.00110,-0.01426,2.06289,0.54375,0.13712,-0.29980,-0.66230,-3.53484,736.19525,738.15612,0.47325,14.07324,0.66230,-0.38896,6.52206,7.95918,7.57022
69.93599,0.70969,0.15231,-1.13261,-0.14260,0.07740,0.92559,-0.01297,-0.00915,1.83638,0.00110,-0.01426,2.06289,0.54375,0.13712,-0.29980,-0.66230,-3.53573,736.28771,738.15612,0.47322,14.07474,0.66230,-0.38801,6.52206,7.95918,7.57117
69.93699,0.70969,0.15231,-1.13261,-0.14260,0.07740,0.92559,-0.01297,-0.00915,1.83638,0.00110,-0.01426,2.06289,0.54375,0.13712,-0.29980,-0.66230,-3.53573,736.28771,735.13342,0.47322,14.07625,0.66230,-0.38687,6.52206,7.95918,7.57231
69.93800,0.70969,0.15231,-1.13261,-0.15083,0.08620,0.88435,-0.01297,-0.00915,1.83638,0.00110,-0.01426,2.06289,0.54375,0.13712,-0.29980,-0.66230,-3.53680,736.39886,738.15612,0.47321,14.07777,0.66230,-0.38572,6.52206,7.95918,7.57345
69.93900,0.70969,0.15231,-1.13261,-0.15083,0.08620,0.88435,-0.01297,-0.00915,1.83638,0.00110,-0.01426,2.06289,0.54375,0.13712,-0.29980,-0.66230,-3.53680,736.39886,735.13342,0.47321,14.07929,0.66230,-0.38457,6.52206,7.95918,7.57460
69.94000,0.80727,0.06837,-1.17525,-0.16440,0.08689,0.84024,-0.00703,-0.01330,1.83638,-0.00092,-0.01320,2.07147,0.53924,0.17010,-0.29980,-0.65930,-3.61675,744.67443,735.13342,0.47989,14.08083,0.65930,-0.38309,6.52208,8.12775,7.74466
69.94100,0.80727,0.06837,-1.17525,-0.16440,0.08689,0.84024,-0.00703,-0.01330,1.83638,-0.00092,-0.01320,2.07147,0.53924,0.17010,-0.29980,-0.65930,-3.61675,744.67443,735.13342,0.47989,14.08238,0.65930,-0.38172,6.52208,8.12775,7.74603
69.94200,0.80727,0.06837,-1.17525,-0.16153,0.08319,0.79198,-0.00703,-0.01330,1.83638,-0.00092,-0.01320,2.07147,0.53924,0.17010,-0.29980,-0.65930,-3.61803,744.80633,733.33160,0.47989,14.08394,0.65930,-0.38035,6.52208,8.12775,7.74740
69.94300,0.80727,0.06837,-1.17525,-0.16153,0.08319,0.79198,-0.00703,-0.01330,1.83638,-0.00092,-0.01320,2.07147,0.53924,0.17010,-0.29980,-0.65930,-3.61803,744.80633,731.53863,0.47989,14.08551,0.65930,-0.37893,6.52208,8.12775,7.74882
69.94400,0.80727,0.06837,-1.17525,-0.14965,0.08599,0.74510,-0.00703,-0.01330,1.83638,-0.00092,-0.01320,2.07147,0.53924,0.17010,-0.29980,-0.65930,-3.61936,744.94268,733.33160,0.47989,14.08709,0.65930,-0.37751,6.52208,8.12775,7.75024
69.94499,0.80727,0.06837,-1.17525,-0.14965,0.08599,0.74510,-0.00703,-0.01330,1.83638,-0.00092,-0.01320,2.07147,0.53924,0.17010,-0.29980,-0.65930,-3.61936,744.94268,735.13342,0.47989,14.08867,0.65930,-0.37593,6.52208,8.12775,7.75181
69.94599,0.80727,0.06837,-1.17525,-0.15186,0.09357,0.70232,-0.00703,-0.01330,1.83638,-0.00092,-0.01320,2.07147,0.53924,0.17010,-0.29980,-0.65930,-3.62083,745.09405,735.13342,0.47991,14.09027,0.65930,-0.37436,6.52208,8.12775,7.75339
69.94699,0.80727,0.06837,-1.17525,-0.15186,0.09357,0.70232,-0.00703,-0.01330,1.83638,-0.00092,-0.01320,2.07147,0.53924,0.17010,-0.29980,-0.65930,-3.62083,745.09405,733.33160,0.47991,14.09187,0.65930,-0.37282,6.52208,8.12775,7.75493
69.94799,0.80727,0.06837,-1.17525,-0.16585,0.09466,0.65897,-0.00703,-0.01330,1.83638,-0.00092,-0.01320,2.07147,0.53924,0.17010,-0.29980,-0.65930,-3.62227,745.24218,735.13342,0.47992,14.09348,0.65930,-0.37128,6.52208,8.12775,7.75647
69.94899,0.80727,0.06837,-1.17525,-0.16585,0.09466,0.65897,-0.00703,-0.01330,1.83638,-0.00092,-0.01320,2.07147,0.53924,0.17010,-0.29980,-0.65930,-3.62227,745.24218,733.93121,0.47992,14.09509,0.65930,-0.36996,6.52208,8.12775,7.75778
69.94999,0.71022,0.12020,-1.20638,-0.16790,0.08879,0.61155,-0.00962,-0.01220,1.83638,-0.00297,-0.01204,2.07775,0.53924,0.17010,-0.29980,-0.65930,-3.62352,745.37121,733.33160,0.47991,14.09671,0.65930,-0.36865,6.52208,8.12781,7.75916
69.95099,0.71022,0.12020,-1.20638,-0.16790,0.08879,0.61155,-0.00962,-0.01220,1.83638,-0.00297,-0.01204,2.07775,0.53924,0.17010,-0.29980,-0.65930,-3.62352,745.37121,733.93121,0.47991,14.09834,0.65930,-0.36745,6.52208,8.12781,7.76036
69.95200,0.71022,0.12020,-1.20638,-0.15480,0.08736,0.56430,-0.00962,-0.01220,1.83638,-0.00297,-0.01204,2.07775,0.53924,0.17010,-0.29980,-0.65930,-3.62464,745.48620,733.93121,0.47990,14.09998,0.65930,-0.36626,6.52208,8.12781,7.76155
69.95300,0.71022,0.12020,-1.20638,-0.15480,0.08736,0.56430,-0.00962,-0.01220,1.83638,-0.00297,-0.01204,2.07775,0.53924,0.17010,-0.29980,-0.65930,-3.62464,745.48620,733.93121,0.47990,14.10162,0.65930,-0.36495,6.52208,8.12781,7.76286
69.95400,0.71022,0.12020,-1.20638,-0.14959,0.09344,0.52197,-0.00962,-0.01220,1.83638,-0.00297,-0.01204,2.07775,0.53924,0.17010,-0.29980,-0.65930,-3.62586,745.61145,735.73596,0.47989,14.10328,0.65930,-0.36365,6.52208,8.12781,7.76416
69.95500,0.71022,0.12020,-1.20638,-0.14959,0.09344,0.52197,-0.00962,-0.01220,1.83638,-0.00297,-0.01204,2.07775,0.53924,0.17010,-0.29980,-0.65930,-3.62586,745.61145,738.15612,0.47989,14.10493,0.65930,-0.36228,6.52208,8.12781,7.76553
69.95600,0.71022,0.12020,-1.20638,-0.16108,0.09639,0.48156,-0.00962,-0.01220,1.83638,-0.00297,-0.01204,2.07775,0.53924,0.17010,-0.29980,-0.65930,-3.62714,745.74310,738.15612,0.47988,14.10660,0.65930,-0.36091,6.52208,8.12781,7.76690
69.95700,0.71022,0.12020,-1.20638,-0.16108,0.09639,0.48156,-0.00962,-0.01220,1.83638,-0.00297,-0.01204,2.07775,0.53924,0.17010,-0.29980,-0.65930,-3.62714,745.74310,735.73596,0.47988,14.10827,0.65930,-0.35968,6.52208,8.12781,7.76812
69.95800,0.71022,0.12020,-1.20638,-0.16904,0.09063,0.43755,-0.00962,-0.01220,1.83638,-0.00297,-0.01204,2.07775,0.53924,0.17010,-0.29980,-0.65930,-3.62828,745.86041,735.73596,0.47986,14.10994,0.65930,-0.35846,6.52208,8.12781,7.76935
69.95899,0.71022,0.12020,-1.20638,-0.16904,0.09063,0.43755,-0.00962,-0.01220,1.83638,-0.00297,-0.01204,2.07775,0.53924,0.17010,-0.29980,-0.65930,-3.62828,745.86041,738.15612,0.47986,14.11163,0.65930,-0.35738,6.52208,8.12781,7.77043
69.95999,0.75751,0.11264,-1.22661,-0.16034,0.08498,0.39125,-0.00789,-0.01251,1.83638,-0.00496,-0.01090,2.08183,0.53369,0.20635,-0.29980,-0.65560,-3.71729,754.95159,735.73596,0.48718,14.11332,0.65560,-0.35593,6.52211,8.31587,7.95994
69.96099,0.75751,0.11264,-1.22661,-0.16034,0.08498,0.39125,-0.00789,-0.01251,1.83638,-0.00496,-0.01090,2.08183,0.53369,0.20635,-0.29980,-0.65560,-3.71729,754.95159,738.15612,0.48718,14.11501,0.65560,-0.35441,6.52211,8.31587,7.96146
69.96199,0.75751,0.11264,-1.22661,-0.15128,0.08635,0.34800,-0.00789,-0.01251,1.83638,-0.00496,-0.01090,2.08183,0.53369,0.20635,-0.29980,-0.65560,-3.71870,755.09527,738.15612,0.48718,14.11671,0.65560,-0.35290,6.52211,8.31587,7.96297
69.96299,0.75751,0.11264,-1.22661,-0.15128,0.08635,0.34800,-0.00789,-0.01251,1.83638,-0.00496,-0.01090,2.08183,0.53369,0.20635,-0.29980,-0.65560,-3.71870,755.09527,738.15612,0.48718,14.11842,0.65560,-0.35133,6.52211,8.31587,7.96454
69.96399,0.75751,0.11264,-1.22661,-0.15704,0.08786,0.30745,-0.00789,-0.01251,1.83638,-0.00496,-0.01090,2.08183,0.53369,0.20635,-0.29980,-0.65560,-3.72017,755.24426,738.15612,0.48718,14.12014,0.65560,-0.34975,6.52211,8.31587,7.96611
69.96499,0.75751,0.11264,-1.22661,-0.15704,0.08786,0.30745,-0.00789,-0.01251,1.83638,-0.00496,-0.01090,2.08183,0.53369,0.20635,-0.29980,-0.65560,-3.72017,755.24426,739.37219,0.48718,14.12186,0.65560,-0.34835,6.52211,8.31587,7.96752
69.96600,0.75751,0.11264,-1.22661,-0.16431,0.08258,0.26463,-0.00789,-0.01251,1.83638,-0.00496,-0.01090,2.08183,0.53369,0.20635,-0.29980,-0.65560,-3.72149,755.37786,739.37219,0.48717,14.12358,0.65560,-0.34694,6.52211,8.31587,7.96893
69.96700,0.75751,0.11264,-1.22661,-0.16431,0.08258,0.26463,-0.00789,-0.01251,1.83638,-0.00496,-0.01090,2.08183,0.53369,0.20635,-0.29980,-0.65560,-3.72149,755.37786,738.15612,0.48717,14.12532,0.65560,-0.34571,6.52211,8.31587,7.97016
69.96800,0.75751,0.11264,-1.22661,-0.15675,0.07701,0.21927,-0.00789,-0.01251,1.83638,-0.00496,-0.01090,2.08183,0.53369,0.20635,-0.29980,-0.65560,-3.72263,755.49389,739.37219,0.48715,14.12705,0.65560,-0.34449,6.52211,8.31587,7.97138
69.96900,0.75751,0.11264,-1.22661,-0.15675,0.07701,0.21927,-0.00789,-0.01251,1.83638,-0.00496,-0.01090,2.08183,0.53369,0.20635,-0.29980,-0.65560,-3.72263,755.49389,739.37219,0.48715,14.12879,0.65560,-0.34320,6.52211,8.31587,7.97267
69.97000,0.83088,0.11079,-1.23619,-0.14584,0.07928,0.17642,-0.00395,-0.01260,1.83638,-0.00685,-0.00986,2.08378,0.52754,0.23809,-0.29980,-0.65149,-3.80354,763.65734,741.20391,0.49369,14.13053,0.65149,-0.34157,6.52215,8.48620,8.14463
69.97100,0.83088,0.11079,-1.23619,-0.14584,0.07928,0.17642,-0.00395,-0.01260,1.83638,-0.00685,-0.00986,2.08378,0.52754,0.23809,-0.29980,-0.65149,-3.80354,763.65734,739.37219,0.49369,14.13228,0.65149,-0.33976,6.52215,8.48620,8.14644
69.97200,0.83088,0.11079,-1.23619,-0.15008,0.08343,0.13715,-0.00395,-0.01260,1.83638,-0.00685,-0.00986,2.08378,0.52754,0.23809,-0.29980,-0.65149,-3.80523,763.82714,741.20391,0.49371,14.13402,0.65149,-0.33794,6.52215,8.48620,8.14825
69.97299,0.83088,0.11079,-1.23619,-0.15008,0.08343,0.13715,-0.00395,-0.01260,1.83638,-0.00685,-0.00986,2.08378,0.52754,0.23809,-0.29980,-0.65149,-3.80523,763.82714,739.37219,0.49371,14.13577,0.65149,-0.33614,6.52215,8.48620,8.15005
69.97399,0.83088,0.11079,-1.23619,-0.16030,0.07913,0.09656,-0.00395,-0.01260,1.83638,-0.00685,-0.00986,2.08378,0.52754,0.23809,-0.29980,-0.65149,-3.80691,763.99627,741.20391,0.49372,14.13752,0.65149,-0.33434,6.52215,8.48620,8.15186
69.97499,0.83088,0.11079,-1.23619,-0.16030,0.07913,0.09656,-0.00395,-0.01260,1.83638,-0.00685,-0.00986,2.08378,0.52754,0.23809,-0.29980,-0.65149,-3.80691,763.99627,741.20391,0.49372,14.13928,0.65149,-0.33266,6.52215,8.48620,8.15353
69.97599,0.83088,0.11079,-1.23619,-0.15507,0.06994,0.05256,-0.00395,-0.01260,1.83638,-0.00685,-0.00986,2.08378,0.52754,0.23809,-0.29980,-0.65149,-3.80848,764.15307,741.20391,0.49373,14.14104,0.65149,-0.33099,6.52215,8.48620,8.15520
69.97699,0.83088,0.11079,-1.23619,-0.15507,0.06994,0.05256,-0.00395,-0.01260,1.83638,-0.00685,-0.00986,2.08378,0.52754,0.23809,-0.29980,-0.65149,-3.80848,764.15307,744.89453,0.49373,14.14280,0.65149,-0.32929,6.52215,8.48620,8.15690
69.97799,0.83088,0.11079,-1.23619,-0.13936,0.06717,0.00950,-0.00395,-0.01260,1.83638,-0.00685,-0.00986,2.08378,0.52754,0.23809,-0.29980,-0.65149,-3.81006,764.31231,744.89453,0.49374,14.14456,0.65149,-0.32759,6.52215,8.48620,8.15860
69.97899,0.83088,0.11079,-1.23619,-0.13936,0.06717,0.00950,-0.00395,-0.01260,1.83638,-0.00685,-0.00986,2.08378,0.52754,0.23809,-0.29980,-0.65149,-3.81006,764.31231,749.24700,0.49374,14.14632,0.65149,-0.32575,6.52215,8.48620,8.16044
69.98000,0.74933,0.12231,-1.23530,-0.13627,0.07012,-0.02996,-0.00682,-0.01192,1.83638,-0.00863,-0.00894,2.08365,0.52754,0.23809,-0.29980,-0.65149,-3.81181,764.48767,749.24700,0.49376,14.14809,0.65149,-0.32391,6.52215,8.48626,8.16235
69.98100,0.74933,0.12231,-1.23530,-0.13627,0.07012,-0.02996,-0.00682,-0.01192,1.83638,-0.00863,-0.00894,2.08365,0.52754,0.23809,-0.29980,-0.65149,-3.81181,764.48767,749.24700,0.49376,14.14986,0.65149,-0.32209,6.52215,8.48626,8.16416
69.98200,0.74933,0.12231,-1.23530,-0.14553,0.06825,-0.06975,-0.00682,-0.01192,1.83638,-0.00863,-0.00894,2.08365,0.52754,0.23809,-0.29980,-0.65149,-3.81351,764.65734,744.89453,0.49377,14.15163,0.65149,-0.32028,6.52215,8.48626,8.16597
69.98300,0.74933,0.12231,-1.23530,-0.14553,0.06825,-0.06975,-0.00682,-0.01192,1.83638,-0.00863,-0.00894,2.08365,0.52754,0.23809,-0.29980,-0.65149,-3.81351,764.65734,744.89453,0.49377,14.15340,0.65149,-0.31869,6.52215,8.48626,8.16756
69.98400,0.74933,0.12231,-1.23530,-0.14395,0.06052,-0.11319,-0.00682,-0.01192,1.83638,-0.00863,-0.00894,2.08365,0.52754,0.23809,-0.29980,-0.65149,-3.81499,764.80633,746.75366,0.49377,14.15517,0.65149,-0.31710,6.52215,8.48626,8.16915
69.98500,0.74933,0.12231,-1.23530,-0.14395,0.06052,-0.11319,-0.00682,-0.01192,1.83638,-0.00863,-0.00894,2.08365,0.52754,0.23809,-0.29980,-0.65149,-3.81499,764.80633,749.24700,0.49377,14.15695,0.65149,-0.31563,6.52215,8.48626,8.17062
69.98600,0.74933,0.12231,-1.23530,-0.12734,0.05695,-0.15702,-0.00682,-0.01192,1.83638,-0.00863,-0.00894,2.08365,0.52754,0.23809,-0.29980,-0.65149,-3.81636,764.94366,746.75366,0.49376,14.15873,0.65149,-0.31417,6.52215,8.48626,8.17209
69.98699,0.74933,0.12231,-1.23530,-0.12734,0.05695,-0.15702,-0.00682,-0.01192,1.83638,-0.00863,-0.00894,2.08365,0.52754,0.23809,-0.29980,-0.65149,-3.81636,764.94366,746.75366,0.49376,14.16051,0.65149,-0.31263,6.52215,8.48626,8.17363
69.98799,0.74933,0.12231,-1.23530,-0.11821,0.06015,-0.19772,-0.00682,-0.01192,1.83638,-0.00863,-0.00894,2.08365,0.52754,0.23809,-0.29980,-0.65149,-3.81780,765.08776,755.55377,0.49375,14.16229,0.65149,-0.31109,6.52215,8.48626,8.17517
69.98899,0.74933,0.12231,-1.23530,-0.11821,0.06015,-0.19772,-0.00682,-0.01192,1.83638,-0.00863,-0.00894,2.08365,0.52754,0.23809,-0.29980,-0.65149,-3.81780,765.08776,746.75366,0.49375,14.16407,0.65149,-0.30954,6.52215,8.48626,8.17672
69.98999,1.11606,0.11372,-1.22423,-0.12525,0.06061,-0.23860,0.01125,-0.01195,1.83638,-0.01019,-0.00816,2.08146,0.52020,0.27936,-0.29980,-0.64660,-3.92180,775.43542,755.55377,0.50205,14.16585,0.64660,-0.30755,6.52220,8.70541,8.39786
69.99099,1.11606,0.11372,-1.22423,-0.12525,0.06061,-0.23860,0.01125,-0.01195,1.83638,-0.01019,-0.00816,2.08146,0.52020,0.27936,-0.29980,-0.64660,-3.92180,775.43542,755.55377,0.50205,14.16763,0.64660,-0.30575,6.52220,8.70541,8.39965
69.99199,1.11606,0.11372,-1.22423,-0.12818,0.05404,-0.28445,0.01125,-0.01195,1.83638,-0.01019,-0.00816,2.08146,0.52020,0.27936,-0.29980,-0.64660,-3.92348,775.60137,746.75366,0.50206,14.16941,0.64660,-0.30395,6.52220,8.70541,8.40145
69.99299,1.11606,0.11372,-1.22423,-0.12818,0.05404,-0.28445,0.01125,-0.01195,1.83638,-0.01019,-0.00816,2.08146,0.52020,0.27936,-0.29980,-0.64660,-3.92348,775.60137,759.38909,0.50206,14.17118,0.64660,-0.30233,6.52220,8.70541,8.40307
69.99400,1.11606,0.11372,-1.22423,-0.11507,0.04888,-0.33310,0.01125,-0.01195,1.83638,-0.01019,-0.00816,2.08146,0.52020,0.27936,-0.29980,-0.64660,-3.92499,775.75091,764.56378,0.50206,14.17296,0.64660,-0.30071,6.52220,8.70541,8.40469
69.99500,1.11606,0.11372,-1.22423,-0.11507,0.04888,-0.33310,0.01125,-0.01195,1.83638,-0.01019,-0.00816,2.08146,0.52020,0.27936,-0.29980,-0.64660,-3.92499,775.75091,764.56378,0.50206,14.17474,0.64660,-0.29910,6.52220,8.70541,8.40631
69.99600,1.11606,0.11372,-1.22423,-0.10331,0.05061,-0.37872,0.01125,-0.01195,1.83638,-0.01019,-0.00816,2.08146,0.52020,0.27936,-0.29980,-0.64660,-3.92650,775.89990,764.56378,0.50205,14.17652,0.64660,-0.29748,6.52220,8.70541,8.40792
69.99700,1.11606,0.11372,-1.22423,-0.10331,0.05061,-0.37872,0.01125,-0.01195,1.83638,-0.01019,-0.00816,2.08146,0.52020,0.27936,-0.29980,-0.64660,-3.92650,775.89990,759.38909,0.50205,14.17829,0.64660,-0.29588,6.52220,8.70541,8.40952
69.99800,1.11606,0.11372,-1.22423,-0.10661,0.05210,-0.42081,0.01125,-0.01195,1.83638,-0.01019,-0.00816,2.08146,0.52020,0.27936,-0.29980,-0.64660,-3.92799,776.04730,759.38909,0.50204,14.18006,0.64660,-0.29429,6.52220,8.70541,8.41112
69.99900,1.11606,0.11372,-1.22423,-0.10661,0.05210,-0.42081,0.01125,-0.01195,1.83638,-0.01019,-0.00816,2.08146,0.52020,0.27936,-0.29980,-0.64660,-3.92799,776.04730,759.38909,0.50204,14.18184,0.64660,-0.29287,6.52220,8.70541,8.41254
70.00000,0.81453,0.11711,-1.20185,-0.11015,0.04735,-0.46316,0.00286,-0.01156,1.83638,-0.01151,-0.00754,2.07701,0.52020,0.27936,-0.29980,-0.64660,-3.92906,776.15270,749.24700,0.50201,14.18361,0.64660,-0.29145,6.52220,8.70485,8.41340
70.00099,0.81453,0.11711,-1.20185,-0.11015,0.04735,-0.46316,0.00286,-0.01156,1.83638,-0.01151,-0.00754,2.07701,0.52020,0.27936,-0.29980,-0.64660,-3.92906,776.15270,759.38909,0.50201,14.18538,0.64660,-0.29017,6.52220,8.70485,8.41468
70.00199,0.81453,0.11711,-1.20185,-0.09911,0.04245,-0.50582,0.00286,-0.01156,1.83638,-0.01151,-0.00754,2.07701,0.52020,0.27936,-0.29980,-0.64660,-3.93025,776.27075,749.24700,0.50198,14.18715,0.64660,-0.28889,6.52220,8.70485,8.41596
70.00299,0.81453,0.11711,-1.20185,-0.09911,0.04245,-0.50582,0.00286,-0.01156,1.83638,-0.01151,-0.00754,2.07701,0.52020,0.27936,-0.29980,-0.64660,-3.93025,776.27075,744.89453,0.50198,14.18892,0.64660,-0.28754,6.52220,8.70485,8.41731
70.00399,0.81453,0.11711,-1.20185,-0.08622,0.04361,-0.54555,0.00286,-0.01156,1.83638,-0.01151,-0.00754,2.07701,0.52020,0.27936,-0.29980,-0.64660,-3.93151,776.39550,749.24700,0.50195,14.19068,0.64660,-0.28618,6.52220,8.70485,8.41867
70.00499,0.81453,0.11711,-1.20185,-0.08622,0.04361,-0.54555,0.00286,-0.01156,1.83638,-0.01151,-0.00754,2.07701,0.52020,0.27936,-0.29980,-0.64660,-3.93151,776.39550,749.24700,0.50195,14.19244,0.64660,-0.28471,6.52220,8.70485,8.42014
70.00599,0.81453,0.11711,-1.20185,-0.08745,0.04511,-0.58306,0.00286,-0.01156,1.83638,-0.01151,-0.00754,2.07701,0.52020,0.27936,-0.29980,-0.64660,-3.93289,776.53125,744.89453,0.50194,14.19420,0.64660,-0.28324,6.52220,8.70485,8.42161
70.00700,0.81453,0.11711,-1.20185,-0.08745,0.04511,-0.58306,0.00286,-0.01156,1.83638,-0.01151,-0.00754,2.07701,0.52020,0.27936,-0.29980,-0.64660,-3.93289,776.53125,744.89453,0.50194,14.19595,0.64660,-0.28181,6.52220,8.70485,8.42303
70.00800,0.81453,0.11711,-1.20185,-0.09219,0.04020,-0.62282,0.00286,-0.01156,1.83638,-0.01151,-0.00754,2.07701,0.52020,0.27936,-0.29980,-0.64660,-3.93422,776.66253,744.89453,0.50192,14.19770,0.64660,-0.28039,6.52220,8.70485,8.42446
70.00900,0.81453,0.11711,-1.20185,-0.09219,0.04020,-0.62282,0.00286,-0.01156,1.83638,-0.01151,-0.00754,2.07701,0.52020,0.27936,-0.29980,-0.64660,-3.93422,776.66253,749.24700,0.50192,14.19945,0.64660,-0.27906,6.52220,8.70485,8.42579
70.01000,1.00977,0.09636,-1.16951,-0.08355,0.03452,-0.66512,0.01168,-0.01233,1.83638,-0.01255,-0.00705,2.07051,0.51495,0.30958,-0.29980,-0.64310,-4.01046,784.14959,749.24700,0.50788,14.20119,0.64310,-0.27740,6.52223,8.86512,8.58771
70.01100,1.00977,0.09636,-1.16951,-0.08355,0.03452,-0.66512,0.01168,-0.01233,1.83638,-0.01255,-0.00705,2.07051,0.51495,0.30958,-0.29980,-0.64310,-4.01046,784.14959,758.74719,0.50788,14.20293,0.64310,-0.27566,6.52223,8.86512,8.58945
70.01200,1.00977,0.09636,-1.16951,-0.07022,0.03598,-0.70512,0.01168,-0.01233,1.83638,-0.01255,-0.00705,2.07051,0.51495,0.30958,-0.29980,-0.64310,-4.01208,784.30822,758.74719,0.50788,14.20466,0.64310,-0.27393,6.52223,8.86512,8.59119
70.01300,1.00977,0.09636,-1.16951,-0.07022,0.03598,-0.70512,0.01168,-0.01233,1.83638,-0.01255,-0.00705,2.07051,0.51495,0.30958,-0.29980,-0.64310,-4.01208,784.30822,753.01837,0.50788,14.20639,0.64310,-0.27206,6.52223,8.86512,8.59305
70.01399,1.00977,0.09636,-1.16951,-0.07001,0.03970,-0.74107,0.01168,-0.01233,1.83638,-0.01255,-0.00705,2.07051,0.51495,0.30958,-0.29980,-0.64310,-4.01382,784.47827,758.74719,0.50790,14.20811,0.64310,-0.27020,6.52223,8.86512,8.59491
70.01499,1.00977,0.09636,-1.16951,-0.07001,0.03970,-0.74107,0.01168,-0.01233,1.83638,-0.01255,-0.00705,2.07051,0.51495,0.30958,-0.29980,-0.64310,-4.01382,784.47827,762.61505,0.50790,14.20983,0.64310,-0.26841,6.52223,8.86512,8.59670
70.01599,1.00977,0.09636,-1.16951,-0.07581,0.03675,-0.77683,0.01168,-0.01233,1.83638,-0.01255,-0.00705,2.07051,0.51495,0.30958,-0.29980,-0.64310,-4.01549,784.64172,762.61505,0.50791,14.21154,0.64310,-0.26662,6.52223,8.86512,8.59849
70.01699,1.00977,0.09636,-1.16951,-0.07581,0.03675,-0.77683,0.01168,-0.01233,1.83638,-0.01255,-0.00705,2.07051,0.51495,0.30958,-0.29980,-0.64310,-4.01549,784.64172,763.26348,0.50791,14.21324,0.64310,-0.26498,6.52223,8.86512,8.60013
70.01799,1.00977,0.09636,-1.16951,-0.06837,0.03061,-0.81422,0.01168,-0.01233,1.83638,-0.01255,-0.00705,2.07051,0.51495,0.30958,-0.29980,-0.64310,-4.01702,784.79107,763.26348,0.50791,14.21494,0.64310,-0.26334,6.52223,8.86512,8.60177
70.01899,1.00977,0.09636,-1.16951,-0.06837,0.03061,-0.81422,0.01168,-0.01233,1.83638,-0.01255,-0.00705,2.07051,0.51495,0.30958,-0.29980,-0.64310,-4.01702,784.79107,763.26348,0.50791,14.21663,0.64310,-0.26167,6.52223,8.86512,8.60345
70.01999,1.01794,0.05961,-1.12801,-0.05281,0.03049,-0.84957,0.01538,-0.01442,1.83638,-0.01335,-0.00664,2.06213,0.50625,0.33970,-0.29980,-0.63730,-4.10069,792.91827,766.52252,0.51438,14.21831,0.63730,-0.25964,6.52230,9.04057,8.78093
70.02100,1.01794,0.05961,-1.12801,-0.05281,0.03049,-0.84957,0.01538,-0.01442,1.83638,-0.01335,-0.00664,2.06213,0.50625,0.33970,-0.29980,-0.63730,-4.10069,792.91827,763.26348,0.51438,14.21998,0.63730,-0.25744,6.52230,9.04057,8.78313
70.02200,1.01794,0.05961,-1.12801,-0.05010,0.03431,-0.88133,0.01538,-0.01442,1.83638,-0.01335,-0.00664,2.06213,0.50625,0.33970,-0.29980,-0.63730,-4.10274,793.11645,763.26348,0.51442,14.22165,0.63730,-0.25525,6.52230,9.04057,8.78532
70.02300,1.01794,0.05961,-1.12801,-0.05010,0.03431,-0.88133,0.01538,-0.01442,1.83638,-0.01335,-0.00664,2.06213,0.50625,0.33970,-0.29980,-0.63730,-4.10274,793.11645,766.52252,0.51442,14.22330,0.63730,-0.25305,6.52230,9.04057,8.78752
70.02400,1.01794,0.05961,-1.12801,-0.05857,0.03307,-0.91419,0.01538,-0.01442,1.83638,-0.01335,-0.00664,2.06213,0.50625,0.33970,-0.29980,-0.63730,-4.10480,793.31500,766.52252,0.51446,14.22495,0.63730,-0.25085,6.52230,9.04057,8.78972
70.02500,1.01794,0.05961,-1.12801,-0.05857,0.03307,-0.91419,0.01538,-0.01442,1.83638,-0.01335,-0.00664,2.06213,0.50625,0.33970,-0.29980,-0.63730,-4.10480,793.31500,766.52252,0.51446,14.22659,0.63730,-0.24878,6.52230,9.04057,8.79179
70.02600,1.01794,0.05961,-1.12801,-0.05727,0.02776,-0.95136,0.01538,-0.01442,1.83638,-0.01335,-0.00664,2.06213,0.50625,0.33970,-0.29980,-0.63730,-4.10672,793.50122,767.17767,0.51449,14.22821,0.63730,-0.24672,6.52230,9.04057,8.79385
70.02700,1.01794,0.05961,-1.12801,-0.05727,0.02776,-0.95136,0.01538,-0.01442,1.83638,-0.01335,-0.00664,2.06213,0.50625,0.33970,-0.29980,-0.63730,-4.10672,793.50122,767.17767,0.51449,14.22983,0.63730,-0.24468,6.52230,9.04057,8.79589
70.02799,1.01794,0.05961,-1.12801,-0.04499,0.02713,-0.98886,0.01538,-0.01442,1.83638,-0.01335,-0.00664,2.06213,0.50625,0.33970,-0.29980,-0.63730,-4.10863,793.68542,767.17767,0.51453,14.23144,0.63730,-0.24264,6.52230,9.04057,8.79793
70.02899,1.01794,0.05961,-1.12801,-0.04499,0.02713,-0.98886,0.01538,-0.01442,1.83638,-0.01335,-0.00664,2.06213,0.50625,0.33970,-0.29980,-0.63730,-4.10863,793.68542,766.52252,0.51453,14.23304,0.63730,-0.24052,6.52230,9.04057,8.80005
70.02999,1.04368,0.05812,-1.07762,-0.04155,0.03094,-1.02228,0.01936,-0.01542,1.83638,-0.01397,-0.00631,2.05205,0.49680,0.36829,-0.29980,-0.63100,-4.19109,801.60577,766.52252,0.52083,14.23462,0.63100,-0.23806,6.52237,9.21257,8.97450
70.03099,1.04368,0.05812,-1.07762,-0.04155,0.03094,-1.02228,0.01936,-0.01542,1.83638,-0.01397,-0.00631,2.05205,0.49680,0.36829,-0.29980,-0.63100,-4.19109,801.60577,761.32135,0.52083,14.23620,0.63100,-0.23568,6.52237,9.21257,8.97688
70.03199,1.04368,0.05812,-1.07762,-0.04957,0.03077,-1.05352,0.01936,-0.01542,1.83638,-0.01397,-0.00631,2.05205,0.49680,0.36829,-0.29980,-0.63100,-4.19331,801.81787,761.32135,0.52089,14.23776,0.63100,-0.23331,6.52237,9.21257,8.97925
70.03299,1.04368,0.05812,-1.07762,-0.04957,0.03077,-1.05352,0.01936,-0.01542,1.83638,-0.01397,-0.00631,2.05205,0.49680,0.36829,-0.29980,-0.63100,-4.19331,801.81787,777.81445,0.52089,14.23931,0.63100,-0.23117,6.52237,9.21257,8.98139
70.03399,1.04368,0.05812,-1.07762,-0.04952,0.02622,-1.08566,0.01936,-0.01542,1.83638,-0.01397,-0.00631,2.05205,0.49680,0.36829,-0.29980,-0.63100,-4.19530,802.00848,779.16485,0.52093,14.24086,0.63100,-0.22904,6.52237,9.21257,8.98352
70.03500,1.04368,0.05812,-1.07762,-0.04952,0.02622,-1.08566,0.01936,-0.01542,1.83638,-0.01397,-0.00631,2.05205,0.49680,0.36829,-0.29980,-0.63100,-4.19530,802.00848,777.81445,0.52093,14.24239,0.63100,-0.22702,6.52237,9.21257,8.98554
70.03600,1.04368,0.05812,-1.07762,-0.03664,0.02549,-1.11689,0.01936,-0.01542,1.83638,-0.01397,-0.00631,2.05205,0.49680,0.36829,-0.29980,-0.63100,-4.19719,802.18902,779.16485,0.52096,14.24391,0.63100,-0.22499,6.52237,9.21257,8.98757
70.03700,1.04368,0.05812,-1.07762,-0.03664,0.02549,-1.11689,0.01936,-0.01542,1.83638,-0.01397,-0.00631,2.05205,0.49680,0.36829,-0.29980,-0.63100,-4.19719,802.18902,777.81445,0.52096,14.24541,0.63100,-0.22294,6.52237,9.21257,8.98963
70.03800,1.04368,0.05812,-1.07762,-0.02932,0.02954,-1.14502,0.01936,-0.01542,1.83638,-0.01397,-0.00631,2.05205,0.49680,0.36829,-0.29980,-0.63100,-4.19911,802.37280,777.81445,0.52100,14.24691,0.63100,-0.22088,6.52237,9.21257,8.99169
70.03900,1.04368,0.05812,-1.07762,-0.02932,0.02954,-1.14502,0.01936,-0.01542,1.83638,-0.01397,-0.00631,2.05205,0.49680,0.36829,-0.29980,-0.63100,-4.19911,802.37280,777.81445,0.52100,14.24839,0.63100,-0.21889,6.52237,9.21257,8.99367
70.04000,0.84561,0.10348,-1.01857,-0.03381,0.03059,-1.17306,0.01154,-0.01372,1.83638,-0.01449,-0.00601,2.04038,0.49680,0.36829,-0.29980,-0.63100,-4.20034,802.49035,763.91308,0.52099,14.24986,0.63100,-0.21690,6.52237,9.21123,8.99432
70.04100,0.84561,0.10348,-1.01857,-0.03381,0.03059,-1.17306,0.01154,-0.01372,1.83638,-0.01449,-0.00601,2.04038,0.49680,0.36829,-0.29980,-0.63100,-4.20034,802.49035,776.46875,0.52099,14.25131,0.63100,-0.21512,6.52237,9.21123,8.99610
70.04199,0.84561,0.10348,-1.01857,-0.03349,0.02754,-1.20418,0.01154,-0.01372,1.83638,-0.01449,-0.00601,2.04038,0.49680,0.36829,-0.29980,-0.63100,-4.20201,802.64910,769.14984,0.52101,14.25275,0.63100,-0.21334,6.52237,9.21123,8.99788
70.04299,0.84561,0.10348,-1.01857,-0.03349,0.02754,-1.20418,0.01154,-0.01372,1.83638,-0.01449,-0.00601,2.04038,0.49680,0.36829,-0.29980,-0.63100,-4.20201,802.64910,776.46875,0.52101,14.25418,0.63100,-0.21166,6.52237,9.21123,8.99956
70.04399,0.84561,0.10348,-1.01857,-0.02204,0.02796,-1.23559,0.01154,-0.01372,1.83638,-0.01449,-0.00601,2.04038,0.49680,0.36829,-0.29980,-0.63100,-4.20358,802.79895,771.79522,0.52103,14.25560,0.63100,-0.20998,6.52237,9.21123,9.00124
70.04499,0.84561,0.10348,-1.01857,-0.02204,0.02796,-1.23559,0.01154,-0.01372,1.83638,-0.01449,-0.00601,2.04038,0.49680,0.36829,-0.29980,-0.63100,-4.20358,802.79895,769.14984,0.52103,14.25700,0.63100,-0.20828,6.52237,9.21123,9.00294
70.04599,0.84561,0.10348,-1.01857,-0.01544,0.03267,-1.26352,0.01154,-0.01372,1.83638,-0.01449,-0.00601,2.04038,0.49680,0.36829,-0.29980,-0.63100,-4.20516,802.95043,769.14984,0.52105,14.25840,0.63100,-0.20658,6.52237,9.21123,9.00464
70.04699,0.84561,0.10348,-1.01857,-0.01544,0.03267,-1.26352,0.01154,-0.01372,1.83638,-0.01449,-0.00601,2.04038,0.49680,0.36829,-0.29980,-0.63100,-4.20516,802.95043,769.14984,0.52105,14.25978,0.63100,-0.20500,6.52237,9.21123,9.00622
70.04799,0.84561,0.10348,-1.01857,-0.01968,0.03347,-1.29025,0.01154,-0.01372,1.83638,-0.01449,-0.00601,2.04038,0.49680,0.36829,-0.29980,-0.63100,-4.20664,803.09173,769.14984,0.52106,14.26114,0.63100,-0.20341,6.52237,9.21123,9.00781
70.04900,0.84561,0.10348,-1.01857,-0.01968,0.03347,-1.29025,0.01154,-0.01372,1.83638,-0.01449,-0.00601,2.04038,0.49680,0.36829,-0.29980,-0.63100,-4.20664,803.09173,769.80950,0.52106,14.26250,0.63100,-0.20212,6.52237,9.21123,9.00910
70.05000,1.05115,0.11338,-0.95285,-0.01803,0.02902,-1.31995,0.01962,-0.01258,1.83638,-0.01479,-0.00571,2.02727,0.48645,0.40144,-0.29980,-0.62410,-4.29995,811.94451,769.80950,0.52812,14.26384,0.62410,-0.20042,6.52246,9.40804,9.20762
70.05100,1.05115,0.11338,-0.95285,-0.01803,0.02902,-1.31995,0.01962,-0.01258,1.83638,-0.01479,-0.00571,2.02727,0.48645,0.40144,-0.29980,-0.62410,-4.29995,811.94451,771.79522,0.52812,14.26516,0.62410,-0.19894,6.52246,9.40804,9.20910
70.05200,1.05115,0.11338,-0.95285,-0.00339,0.02779,-1.35111,0.01962,-0.01258,1.83638,-0.01479,-0.00571,2.02727,0.48645,0.40144,-0.29980,-0.62410,-4.30134,812.07562,771.79522,0.52813,14.26647,0.62410,-0.19745,6.52246,9.40804,9.21059
70.05300,1.05115,0.11338,-0.95285,-0.00339,0.02779,-1.35111,0.01962,-0.01258,1.83638,-0.01479,-0.00571,2.02727,0.48645,0.40144,-0.29980,-0.62410,-4.30134,812.07562,771.79522,0.52813,14.26777,0.62410,-0.19601,6.52246,9.40804,9.21203
70.05400,1.05115,0.11338,-0.95285,0.00707,0.03232,-1.37980,0.01962,-0.01258,1.83638,-0.01479,-0.00571,2.02727,0.48645,0.40144,-0.29980,-0.62410,-4.30269,812.20263,774.45892,0.52814,14.26905,0.62410,-0.19457,6.52246,9.40804,9.21347
70.05500,1.05115,0.11338,-0.95285,0.00707,0.03232,-1.37980,0.01962,-0.01258,1.83638,-0.01479,-0.00571,2.02727,0.48645,0.40144,-0.29980,-0.62410,-4.30269,812.20263,774.45892,0.52814,14.27032,0.62410,-0.19324,6.52246,9.40804,9.21479
70.05599,1.05115,0.11338,-0.95285,0.00426,0.03517,-1.40708,0.01962,-0.01258,1.83638,-0.01479,-0.00571,2.02727,0.48645,0.40144,-0.29980,-0.62410,-4.30392,812.31927,782.56134,0.52814,14.27158,0.62410,-0.19192,6.52246,9.40804,9.21612
70.05699,1.05115,0.11338,-0.95285,0.00426,0.03517,-1.40708,0.01962,-0.01258,1.83638,-0.01479,-0.00571,2.02727,0.48645,0.40144,-0.29980,-0.62410,-4.30392,812.31927,790.13897,0.52814,14.27282,0.62410,-0.19085,6.52246,9.40804,9.21719
70.05799,1.05115,0.11338,-0.95285,0.00381,0.03399,-1.43640,0.01962,-0.01258,1.83638,-0.01479,-0.00571,2.02727,0.48645,0.40144,-0.29980,-0.62410,-4.30492,812.41345,790.13897,0.52812,14.27405,0.62410,-0.18978,6.52246,9.40804,9.21826
70.05899,1.05115,0.11338,-0.95285,0.00381,0.03399,-1.43640,0.01962,-0.01258,1.83638,-0.01479,-0.00571,2.02727,0.48645,0.40144,-0.29980,-0.62410,-4.30492,812.41345,790.13897,0.52812,14.27527,0.62410,-0.18887,6.52246,9.40804,9.21917
70.05999,0.88001,0.10272,-0.88019,0.01509,0.03569,-1.46607,0.01332,-0.01230,1.83638,-0.01479,-0.00539,2.01271,0.48645,0.40144,-0.29980,-0.62410,-4.30531,812.44970,790.13897,0.52806,14.27647,0.62410,-0.18795,6.52246,9.40704,9.21908
70.06099,0.88001,0.10272,-0.88019,0.01509,0.03569,-1.46607,0.01332,-0.01230,1.83638,-0.01479,-0.00539,2.01271,0.48645,0.40144,-0.29980,-0.62410,-4.30531,812.44970,790.13897,0.52806,14.27766,0.62410,-0.18702,6.52246,9.40704,9.22001
70.06199,0.88001,0.10272,-0.88019,0.02309,0.04182,-1.49160,0.01332,-0.01230,1.83638,-0.01479,-0.00539,2.01271,0.48645,0.40144,-0.29980,-0.62410,-4.30618,812.53216,790.13897,0.52804,14.27883,0.62410,-0.18608,6.52246,9.40704,9.22095
70.06300,0.88001,0.10272,-0.88019,0.02309,0.04182,-1.49160,0.01332,-0.01230,1.83638,-0.01479,-0.00539,2.01271,0.48645,0.40144,-0.29980,-0.62410,-4.30618,812.53216,789.44403,0.52804,14.27999,0.62410,-0.18519,6.52246,9.40704,9.22184
70.06400,0.88001,0.10272,-0.88019,0.01867,0.04462,-1.51339,0.01332,-0.01230,1.83638,-0.01479,-0.00539,2.01271,0.48645,0.40144,-0.29980,-0.62410,-4.30701,812.61035,789.44403,0.52802,14.28114,0.62410,-0.18431,6.52246,9.40704,9.22272
70.06500,0.88001,0.10272,-0.88019,0.01867,0.04462,-1.51339,0.01332,-0.01230,1.83638,-0.01479,-0.00539,2.01271,0.48645,0.40144,-0.29980,-0.62410,-4.30701,812.61035,790.13897,0.52802,14.28228,0.62410,-0.18363,6.52246,9.40704,9.22340
70.06600,0.88001,0.10272,-0.88019,0.01736,0.04197,-1.53522,0.01332,-0.01230,1.83638,-0.01479,-0.00539,2.01271,0.48645,0.40144,-0.29980,-0.62410,-4.30765,812.67034,789.44403,0.52799,14.28340,0.62410,-0.18295,6.52246,9.40704,9.22409
70.06700,0.88001,0.10272,-0.88019,0.01736,0.04197,-1.53522,0.01332,-0.01230,1.83638,-0.01479,-0.00539,2.01271,0.48645,0.40144,-0.29980,-0.62410,-4.30765,812.67034,785.29998,0.52799,14.28450,0.62410,-0.18239,6.52246,9.40704,9.22464
70.06800,0.88001,0.10272,-0.88019,0.02929,0.04166,-1.55677,0.01332,-0.01230,1.83638,-0.01479,-0.00539,2.01271,0.48645,0.40144,-0.29980,-0.62410,-4.30817,812.71948,781.87969,0.52794,14.28560,0.62410,-0.18183,6.52246,9.40704,9.22520
70.06900,0.88001,0.10272,-0.88019,0.02929,0.04166,-1.55677,0.01332,-0.01230,1.83638,-0.01479,-0.00539,2.01271,0.48645,0.40144,-0.29980,-0.62410,-4.30817,812.71948,781.87969,0.52794,14.28667,0.62410,-0.18122,6.52246,9.40704,9.22581
70.06999,1.04062,0.01750,-0.80249,0.03928,0.04655,-1.57513,0.01986,-0.01620,1.83638,-0.01457,-0.00498,1.99692,0.47565,0.42667,-0.29980,-0.61690,-4.38533,819.95947,785.29998,0.53371,14.28774,0.61690,-0.18029,6.52256,9.57074,9.39044
70.07099,1.04062,0.01750,-0.80249,0.03928,0.04655,-1.57513,0.01986,-0.01620,1.83638,-0.01457,-0.00498,1.99692,0.47565,0.42667,-0.29980,-0.61690,-4.38533,819.95947,789.44403,0.53371,14.28879,0.61690,-0.17939,6.52256,9.57074,9.39134
70.07199,1.04062,0.01750,-0.80249,0.03620,0.04977,-1.59174,0.01986,-0.01620,1.83638,-0.01457,-0.00498,1.99692,0.47565,0.42667,-0.29980,-0.61690,-4.38617,820.03796,790.13897,0.53369,14.28982,0.61690,-0.17849,6.52256,9.57074,9.39224
70.07299,1.04062,0.01750,-0.80249,0.03620,0.04977,-1.59174,0.01986,-0.01620,1.83638,-0.01457,-0.00498,1.99692,0.47565,0.42667,-0.29980,-0.61690,-4.38617,820.03796,790.13897,0.53369,14.29084,0.61690,-0.17778,6.52256,9.57074,9.39295
70.07399,1.04062,0.01750,-0.80249,0.03353,0.04912,-1.61044,0.01986,-0.01620,1.83638,-0.01457,-0.00498,1.99692,0.47565,0.42667,-0.29980,-0.61690,-4.38684,820.10040,790.13897,0.53367,14.29185,0.61690,-0.17706,6.52256,9.57074,9.39367
70.07499,1.04062,0.01750,-0.80249,0.03353,0.04912,-1.61044,0.01986,-0.01620,1.83638,-0.01457,-0.00498,1.99692,0.47565,0.42667,-0.29980,-0.61690,-4.38684,820.10040,791.53253,0.53367,14.29284,0.61690,-0.17643,6.52256,9.57074,9.39430
70.07599,1.04062,0.01750,-0.80249,0.04184,0.05124,-1.62998,0.01986,-0.01620,1.83638,-0.01457,-0.00498,1.99692,0.47565,0.42667,-0.29980,-0.61690,-4.38743,820.15588,791.53253,0.53364,14.29382,0.61690,-0.17579,6.52256,9.57074,9.39494
70.07700,1.04062,0.01750,-0.80249,0.04184,0.05124,-1.62998,0.01986,-0.01620,1.83638,-0.01457,-0.00498,1.99692,0.47565,0.42667,-0.29980,-0.61690,-4.38743,820.15588,791.53253,0.53364,14.29479,0.61690,-0.17506,6.52256,9.57074,9.39567
70.07800,1.04062,0.01750,-0.80249,0.04916,0.05729,-1.64613,0.01986,-0.01620,1.83638,-0.01457,-0.00498,1.99692,0.47565,0.42667,-0.29980,-0.61690,-4.38812,820.21966,791.53253,0.53362,14.29574,0.61690,-0.17433,6.52256,9.57074,9.39640
70.07900,1.04062,0.01750,-0.80249,0.04916,0.05729,-1.64613,0.01986,-0.01620,1.83638,-0.01457,-0.00498,1.99692,0.47565,0.42667,-0.29980,-0.61690,-4.38812,820.21966,791.53253,0.53362,14.29668,0.61690,-0.17360,6.52256,9.57074,9.39713
70.08000,1.11952,0.04787,-0.71887,0.04757,0.05990,-1.65917,0.02631,-0.01598,1.83638,-0.01421,-0.00446,1.98028,0.46799,0.44747,-0.29980,-0.61180,-4.44940,825.92242,791.53253,0.53815,14.29760,0.61180,-0.17261,6.52263,9.70024,9.52763
70.08100,1.11952,0.04787,-0.71887,0.04757,0.05990,-1.65917,0.02631,-0.01598,1.83638,-0.01421,-0.00446,1.98028,0.46799,0.44747,-0.29980,-0.61180,-4.44940,825.92242,792.23114,0.53815,14.29851,0.61180,-0.17179,6.52263,9.70024,9.52844
70.08200,1.11952,0.04787,-0.71887,0.05064,0.05820,-1.67200,0.02631,-0.01598,1.83638,-0.01421,-0.00446,1.98028,0.46799,0.44747,-0.29980,-0.61180,-4.45016,825.99304,791.53253,0.53814,14.29941,0.61180,-0.17098,6.52263,9.70024,9.52926
70.08300,1.11952,0.04787,-0.71887,0.05064,0.05820,-1.67200,0.02631,-0.01598,1.83638,-0.01421,-0.00446,1.98028,0.46799,0.44747,-0.29980,-0.61180,-4.45016,825.99304,791.53253,0.53814,14.30029,0.61180,-0.17026,6.52263,9.70024,9.52998
70.08399,1.11952,0.04787,-0.71887,0.06510,0.06058,-1.68297,0.02631,-0.01598,1.83638,-0.01421,-0.00446,1.98028,0.46799,0.44747,-0.29980,-0.61180,-4.45083,826.05548,791.53253,0.53812,14.30116,0.61180,-0.16954,6.52263,9.70024,9.53070
70.08499,1.11952,0.04787,-0.71887,0.06510,0.06058,-1.68297,0.02631,-0.01598,1.83638,-0.01421,-0.00446,1.98028,0.46799,0.44747,-0.29980,-0.61180,-4.45083,826.05548,792.23114,0.53812,14.30201,0.61180,-0.16875,6.52263,9.70024,9.53148
70.08599,1.11952,0.04787,-0.71887,0.07420,0.06858,-1.68860,0.02631,-0.01598,1.83638,-0.01421,-0.00446,1.98028,0.46799,0.44747,-0.29980,-0.61180,-4.45157,826.12371,792.23114,0.53812,14.30285,0.61180,-0.16796,6.52263,9.70024,9.53227
70.08699,1.11952,0.04787,-0.71887,0.07420,0.06858,-1.68860,0.02631,-0.01598,1.83638,-0.01421,-0.00446,1.98028,0.46799,0.44747,-0.29980,-0.61180,-4.45157,826.12371,789.44403,0.53812,14.30367,0.61180,-0.16720,6.52263,9.70024,9.53303
70.08799,1.11952,0.04787,-0.71887,0.06860,0.07379,-1.69126,0.02631,-0.01598,1.83638,-0.01421,-0.00446,1.98028,0.46799,0.44747,-0.29980,-0.61180,-4.45228,826.18981,789.44403,0.53811,14.30447,0.61180,-0.16644,6.52263,9.70024,9.53380
70.08899,1.11952,0.04787,-0.71887,0.06860,0.07379,-1.69126,0.02631,-0.01598,1.83638,-0.01421,-0.00446,1.98028,0.46799,0.44747,-0.29980,-0.61180,-4.45228,826.18981,795.03796,0.53811,14.30526,0.61180,-0.16586,6.52263,9.70024,9.53437
70.08999,0.91269,0.07946,-0.63284,0.06468,0.07398,-1.69607,0.01926,-0.01448,1.83638,-0.01359,-0.00380,1.96316,0.46799,0.44747,-0.29980,-0.61180,-4.45199,826.16253,795.03796,0.53803,14.30604,0.61180,-0.16529,6.52263,9.69846,9.53317
70.09100,0.91269,0.07946,-0.63284,0.06468,0.07398,-1.69607,0.01926,-0.01448,1.83638,-0.01359,-0.00380,1.96316,0.46799,0.44747,-0.29980,-0.61180,-4.45199,826.16253,796.44885,0.53803,14.30680,0.61180,-0.16481,6.52263,9.69846,9.53364
70.09200,0.91269,0.07946,-0.63284,0.07330,0.07663,-1.70229,0.01926,-0.01448,1.83638,-0.01359,-0.00380,1.96316,0.46799,0.44747,-0.29980,-0.61180,-4.45243,826.20391,796.44885,0.53800,14.30755,0.61180,-0.16433,6.52263,9.69846,9.53412
70.09300,0.91269,0.07946,-0.63284,0.07330,0.07663,-1.70229,0.01926,-0.01448,1.83638,-0.01359,-0.00380,1.96316,0.46799,0.44747,-0.29980,-0.61180,-4.45243,826.20391,796.44885,0.53800,14.30828,0.61180,-0.16379,6.52263,9.69846,9.53466
70.09400,0.91269,0.07946,-0.63284,0.08003,0.08358,-1.70554,0.01926,-0.01448,1.83638,-0.01359,-0.00380,1.96316,0.46799,0.44747,-0.29980,-0.61180,-4.45294,826.25067,796.44885,0.53799,14.30900,0.61180,-0.16325,6.52263,9.69846,9.53520
70.09500,0.91269,0.07946,-0.63284,0.08003,0.08358,-1.70554,0.01926,-0.01448,1.83638,-0.01359,-0.00380,1.96316,0.46799,0.44747,-0.29980,-0.61180,-4.45294,826.25067,801.42669,0.53799,14.30971,0.61180,-0.16272,6.52263,9.69846,9.53574
70.09600,0.91269,0.07946,-0.63284,0.07500,0.08778,-1.70615,0.01926,-0.01448,1.83638,-0.01359,-0.00380,1.96316,0.46799,0.44747,-0.29980,-0.61180,-4.45344,826.29705,803.57916,0.53797,14.31040,0.61180,-0.16218,6.52263,9.69846,9.53627
70.09700,0.91269,0.07946,-0.63284,0.07500,0.08778,-1.70615,0.01926,-0.01448,1.83638,-0.01359,-0.00380,1.96316,0.46799,0.44747,-0.29980,-0.61180,-4.45344,826.29705,803.57916,0.53797,14.31108,0.61180,-0.16176,6.52263,9.69846,9.53669
70.09799,0.91269,0.07946,-0.63284,0.07200,0.08768,-1.70770,0.01926,-0.01448,1.83638,-0.01359,-0.00380,1.96316,0.46799,0.44747,-0.29980,-0.61180,-4.45383,826.33355,806.46710,0.53795,14.31174,0.61180,-0.16134,6.52263,9.69846,9.53711
70.09899,0.91269,0.07946,-0.63284,0.07200,0.08768,-1.70770,0.01926,-0.01448,1.83638,-0.01359,-0.00380,1.96316,0.46799,0.44747,-0.29980,-0.61180,-4.45383,826.33355,806.46710,0.53795,14.31239,0.61180,-0.16093,6.52263,9.69846,9.53752
70.09999,0.96861,0.04675,-0.54721,0.07978,0.08945,-1.70938,0.02045,-0.01531,1.83638,-0.01288,-0.00292,1.94594,0.45615,0.47002,-0.29980,-0.60390,-4.52682,833.06927,807.91894,0.54333,14.31302,0.60390,-0.16022,6.52276,9.85364,9.69342
70.10099,0.96861,0.04675,-0.54721,0.07978,0.08945,-1.70938,0.02045,-0.01531,1.83638,-0.01288,-0.00292,1.94594,0.45615,0.47002,-0.29980,-0.60390,-4.52682,833.06927,807.91894,0.54333,14.31364,0.60390,-0.15944,6.52276,9.85364,9.69420
70.10199,0.96861,0.04675,-0.54721,0.08477,0.09364,-1.70765,0.02045,-0.01531,1.83638,-0.01288,-0.00292,1.94594,0.45615,0.47002,-0.29980,-0.60390,-4.52755,833.13598,807.91894,0.54334,14.31424,0.60390,-0.15867,6.52276,9.85364,9.69497
70.10299,0.96861,0.04675,-0.54721,0.08477,0.09364,-1.70765,0.02045,-0.01531,1.83638,-0.01288,-0.00292,1.94594,0.45615,0.47002,-0.29980,-0.60390,-4.52755,833.13598,806.46710,0.54334,14.31483,0.60390,-0.15799,6.52276,9.85364,9.69565
70.10399,0.96861,0.04675,-0.54721,0.07947,0.09490,-1.70355,0.02045,-0.01531,1.83638,-0.01288,-0.00292,1.94594,0.45615,0.47002,-0.29980,-0.60390,-4.52818,833.19390,806.46710,0.54334,14.31540,0.60390,-0.15732,6.52276,9.85364,9.69632
70.10500,0.96861,0.04675,-0.54721,0.07947,0.09490,-1.70355,0.02045,-0.01531,1.83638,-0.01288,-0.00292,1.94594,0.45615,0.47002,-0.29980,-0.60390,-4.52818,833.19390,806.46710,0.54334,14.31596,0.60390,-0.15685,6.52276,9.85364,9.69679
70.10600,0.96861,0.04675,-0.54721,0.07728,0.09506,-1.70068,0.02045,-0.01531,1.83638,-0.01288,-0.00292,1.94594,0.45615,0.47002,-0.29980,-0.60390,-4.52862,833.23431,806.46710,0.54333,14.31650,0.60390,-0.15638,6.52276,9.85364,9.69726
70.10700,0.96861,0.04675,-0.54721,0.07728,0.09506,-1.70068,0.02045,-0.01531,1.83638,-0.01288,-0.00292,1.94594,0.45615,0.47002,-0.29980,-0.60390,-4.52862,833.23431,802.14288,0.54333,14.31703,0.60390,-0.15593,6.52276,9.85364,9.69771
70.10800,0.96861,0.04675,-0.54721,0.08372,0.10067,-1.69815,0.02045,-0.01531,1.83638,-0.01288,-0.00292,1.94594,0.45615,0.47002,-0.29980,-0.60390,-4.52904,833.27307,802.14288,0.54332,14.31754,0.60390,-0.15548,6.52276,9.85364,9.69816
70.10900,0.96861,0.04675,-0.54721,0.08372,0.10067,-1.69815,0.02045,-0.01531,1.83638,-0.01288,-0.00292,1.94594,0.45615,0.47002,-0.29980,-0.60390,-4.52904,833.27307,802.14288,0.54332,14.31804,0.60390,-0.15491,6.52276,9.85364,9.69872
70.11000,1.02379,-0.00298,-0.46239,0.08471,0.10865,-1.69284,0.02339,-0.01771,1.83638,-0.01212,-0.00192,1.92885,0.44370,0.48798,-0.29980,-0.59560,-4.59411,839.22784,802.14288,0.54808,14.31853,0.59560,-0.15408,6.52291,9.99157,9.83749
70.11100,1.02379,-0.00298,-0.46239,0.08471,0.10865,-1.69284,0.02339,-0.01771,1.83638,-0.01212,-0.00192,1.92885,0.44370,0.48798,-0.29980,-0.59560,-4.59411,839.22784,795.03796,0.54808,14.31900,0.59560,-0.15327,6.52291,9.99157,9.83829
70.11199,1.02379,-0.00298,-0.46239,0.07671,0.11052,-1.68573,0.02339,-0.01771,1.83638,-0.01212,-0.00192,1.92885,0.44370,0.48798,-0.29980,-0.59560,-4.59486,839.29638,795.03796,0.54810,14.31946,0.59560,-0.15247,6.52291,9.99157,9.83910
70.11299,1.02379,-0.00298,-0.46239,0.07671,0.11052,-1.68573,0.02339,-0.01771,1.83638,-0.01212,-0.00192,1.92885,0.44370,0.48798,-0.29980,-0.59560,-4.59486,839.29638,795.03796,0.54810,14.31991,0.59560,-0.15180,6.52291,9.99157,9.83977
70.11399,1.02379,-0.00298,-0.46239,0.07554,0.10832,-1.67888,0.02339,-0.01771,1.83638,-0.01212,-0.00192,1.92885,0.44370,0.48798,-0.29980,-0.59560,-4.59548,839.35339,795.03796,0.54811,14.32034,0.59560,-0.15113,6.52291,9.99157,9.84043
70.11499,1.02379,-0.00298,-0.46239,0.07554,0.10832,-1.67888,0.02339,-0.01771,1.83638,-0.01212,-0.00192,1.92885,0.44370,0.48798,-0.29980,-0.59560,-4.59548,839.35339,795.03796,0.54811,14.32075,0.59560,-0.15044,6.52291,9.99157,9.84112
70.11599,1.02379,-0.00298,-0.46239,0.08368,0.11047,-1.66977,0.02339,-0.01771,1.83638,-0.01212,-0.00192,1.92885,0.44370,0.48798,-0.29980,-0.59560,-4.59612,839.41198,805.02056,0.54813,14.32115,0.59560,-0.14976,6.52291,9.99157,9.84181
70.11699,1.02379,-0.00298,-0.46239,0.08368,0.11047,-1.66977,0.02339,-0.01771,1.83638,-0.01212,-0.00192,1.92885,0.44370,0.48798,-0.29980,-0.59560,-4.59612,839.41198,805.02056,0.54813,14.32154,0.59560,-0.14894,6.52291,9.99157,9.84263
70.11799,1.02379,-0.00298,-0.46239,0.08371,0.11592,-1.65567,0.02339,-0.01771,1.83638,-0.01212,-0.00192,1.92885,0.44370,0.48798,-0.29980,-0.59560,-4.59689,839.48175,805.02056,0.54816,14.32191,0.59560,-0.14812,6.52291,9.99157,9.84344
70.11900,1.02379,-0.00298,-0.46239,0.08371,0.11592,-1.65567,0.02339,-0.01771,1.83638,-0.01212,-0.00192,1.92885,0.44370,0.48798,-0.29980,-0.59560,-4.59689,839.48175,815.99810,0.54816,14.32227,0.59560,-0.14730,6.52291,9.99157,9.84426
70.12000,0.91933,0.04649,-0.37851,0.07306,0.11759,-1.63925,0.01935,-0.01581,1.83638,-0.01142,-0.00076,1.91219,0.44370,0.48798,-0.29980,-0.59560,-4.59710,839.50097,815.99810,0.54815,14.32262,0.59560,-0.14649,6.52291,9.99039,9.84390
70.12100,0.91933,0.04649,-0.37851,0.07306,0.11759,-1.63925,0.01935,-0.01581,1.83638,-0.01142,-0.00076,1.91219,0.44370,0.48798,-0.29980,-0.59560,-4.59710,839.50097,815.99810,0.54815,14.32295,0.59560,-0.14575,6.52291,9.99039,9.84463
70.12200,0.91933,0.04649,-0.37851,0.06963,0.11697,-1.62357,0.01935,-0.01581,1.83638,-0.01142,-0.00076,1.91219,0.44370,0.48798,-0.29980,-0.59560,-4.59779,839.56390,815.99810,0.54817,14.32327,0.59560,-0.14501,6.52291,9.99039,9.84537
70.12300,0.91933,0.04649,-0.37851,0.06963,0.11697,-1.62357,0.01935,-0.01581,1.83638,-0.01142,-0.00076,1.91219,0.44370,0.48798,-0.29980,-0.59560,-4.59779,839.56390,815.99810,0.54817,14.32357,0.59560,-0.14421,6.52291,9.99039,9.84617
70.12400,0.91933,0.04649,-0.37851,0.07652,0.12013,-1.60651,0.01935,-0.01581,1.83638,-0.01142,-0.00076,1.91219,0.44370,0.48798,-0.29980,-0.59560,-4.59854,839.63256,815.99810,0.54820,14.32387,0.59560,-0.14341,6.52291,9.99039,9.84698
70.12500,0.91933,0.04649,-0.37851,0.07652,0.12013,-1.60651,0.01935,-0.01581,1.83638,-0.01142,-0.00076,1.91219,0.44370,0.48798,-0.29980,-0.59560,-4.59854,839.63256,815.99810,0.54820,14.32415,0.59560,-0.14246,6.52291,9.99039,9.84793
70.12599,0.91933,0.04649,-0.37851,0.07738,0.12463,-1.58588,0.01935,-0.01581,1.83638,-0.01142,-0.00076,1.91219,0.44370,0.48798,-0.29980,-0.59560,-4.59942,839.71350,814.51715,0.54825,14.32441,0.59560,-0.14150,6.52291,9.99039,9.84888
70.12699,0.91933,0.04649,-0.37851,0.07738,0.12463,-1.58588,0.01935,-0.01581,1.83638,-0.01142,-0.00076,1.91219,0.44370,0.48798,-0.29980,-0.59560,-4.59942,839.71350,814.51715,0.54825,14.32467,0.59560,-0.14052,6.52291,9.99039,9.84986
70.12799,0.91933,0.04649,-0.37851,0.07029,0.12465,-1.56467,0.01935,-0.01581,1.83638,-0.01142,-0.00076,1.91219,0.44370,0.48798,-0.29980,-0.59560,-4.60034,839.79724,814.51715,0.54830,14.32491,0.59560,-0.13954,6.52291,9.99039,9.85084
70.12899,0.91933,0.04649,-0.37851,0.07029,0.12465,-1.56467,0.01935,-0.01581,1.83638,-0.01142,-0.00076,1.91219,0.44370,0.48798,-0.29980,-0.59560,-4.60034,839.79724,814.51715,0.54830,14.32514,0.59560,-0.13854,6.52291,9.99039,9.85184
70.12999,1.10903,-0.00287,-0.30033,0.07042,0.12319,-1.54555,0.02807,-0.01747,1.83638,-0.01079,0.00048,1.89644,0.43095,0.50733,-0.29980,-0.58710,-4.67001,846.12176,812.30578,0.55337,14.32535,0.58710,-0.13725,6.52308,10.13729,10.00004
70.13099,1.10903,-0.00287,-0.30033,0.07042,0.12319,-1.54555,0.02807,-0.01747,1.83638,-0.01079,0.00048,1.89644,0.43095,0.50733,-0.29980,-0.58710,-4.67001,846.12176,808.64678,0.55337,14.32556,0.58710,-0.13580,6.52308,10.13729,10.00148
70.13200,1.10903,-0.00287,-0.30033,0.07789,0.12529,-1.52594,0.02807,-0.01747,1.83638,-0.01079,0.00048,1.89644,0.43095,0.50733,-0.29980,-0.58710,-4.67136,846.24401,812.30578,0.55345,14.32575,0.58710,-0.13436,6.52308,10.13729,10.00293
70.13300,1.10903,-0.00287,-0.30033,0.07789,0.12529,-1.52594,0.02807,-0.01747,1.83638,-0.01079,0.00048,1.89644,0.43095,0.50733,-0.29980,-0.58710,-4.67136,846.24401,812.30578,0.55345,14.32594,0.58710,-0.13279,6.52308,10.13729,10.00449
70.13400,1.10903,-0.00287,-0.30033,0.07854,0.12673,-1.50348,0.02807,-0.01747,1.83638,-0.01079,0.00048,1.89644,0.43095,0.50733,-0.29980,-0.58710,-4.67283,846.37640,812.30578,0.55355,14.32610,0.58710,-0.13123,6.52308,10.13729,10.00605
70.13500,1.10903,-0.00287,-0.30033,0.07854,0.12673,-1.50348,0.02807,-0.01747,1.83638,-0.01079,0.00048,1.89644,0.43095,0.50733,-0.29980,-0.58710,-4.67283,846.37640,812.30578,0.55355,14.32626,0.58710,-0.12973,6.52308,10.13729,10.00756
70.13600,1.10903,-0.00287,-0.30033,0.07457,0.12283,-1.48054,0.02807,-0.01747,1.83638,-0.01079,0.00048,1.89644,0.43095,0.50733,-0.29980,-0.58710,-4.67423,846.50335,817.48443,0.55364,14.32640,0.58710,-0.12822,6.52308,10.13729,10.00906
70.13700,1.10903,-0.00287,-0.30033,0.07457,0.12283,-1.48054,0.02807,-0.01747,1.83638,-0.01079,0.00048,1.89644,0.43095,0.50733,-0.29980,-0.58710,-4.67423,846.50335,817.48443,0.55364,14.32653,0.58710,-0.12676,6.52308,10.13729,10.01052
70.13800,1.10903,-0.00287,-0.30033,0.07970,0.11925,-1.45866,0.02807,-0.01747,1.83638,-0.01079,0.00048,1.89644,0.43095,0.50733,-0.29980,-0.58710,-4.67559,846.62689,808.64678,0.55373,14.32664,0.58710,-0.12530,6.52308,10.13729,10.01198
70.13899,1.10903,-0.00287,-0.30033,0.07970,0.11925,-1.45866,0.02807,-0.01747,1.83638,-0.01079,0.00048,1.89644,0.43095,0.50733,-0.29980,-0.58710,-4.67559,846.62689,808.64678,0.55373,14.32674,0.58710,-0.12368,6.52308,10.13729,10.01360
70.13999,1.13981,-0.02332,-0.22734,0.08887,0.12118,-1.43504,0.03330,-0.01866,1.83638,-0.00998,0.00176,1.88180,0.42225,0.51352,-0.29980,-0.58130,-4.70935,849.66955,817.48443,0.55617,14.32683,0.58130,-0.12192,6.52320,10.20619,10.08427
70.14099,1.13981,-0.02332,-0.22734,0.08887,0.12118,-1.43504,0.03330,-0.01866,1.83638,-0.00998,0.00176,1.88180,0.42225,0.51352,-0.29980,-0.58130,-4.70935,849.66955,817.48443,0.55617,14.32691,0.58130,-0.11999,6.52320,10.20619,10.08619
70.14199,1.13981,-0.02332,-0.22734,0.08772,0.12298,-1.40873,0.03330,-0.01866,1.83638,-0.00998,0.00176,1.88180,0.42225,0.51352,-0.29980,-0.58130,-4.71115,849.83184,817.48443,0.55630,14.32697,0.58130,-0.11806,6.52320,10.20619,10.08812
70.14299,1.13981,-0.02332,-0.22734,0.08772,0.12298,-1.40873,0.03330,-0.01866,1.83638,-0.00998,0.00176,1.88180,0.42225,0.51352,-0.29980,-0.58130,-4.71115,849.83184,817.48443,0.55630,14.32702,0.58130,-0.11614,6.52320,10.20619,10.09004
70.14399,1.13981,-0.02332,-0.22734,0.08308,0.11989,-1.38349,0.03330,-0.01866,1.83638,-0.00998,0.00176,1.88180,0.42225,0.51352,-0.29980,-0.58130,-4.71294,849.99365,817.48443,0.55642,14.32706,0.58130,-0.11422,6.52320,10.20619,10.09196
70.14499,1.13981,-0.02332,-0.22734,0.08308,0.11989,-1.38349,0.03330,-0.01866,1.83638,-0.00998,0.00176,1.88180,0.42225,0.51352,-0.29980,-0.58130,-4.71294,849.99365,819.72406,0.55642,14.32708,0.58130,-0.11230,6.52320,10.20619,10.09388
70.14600,1.13981,-0.02332,-0.22734,0.09008,0.11769,-1.36079,0.03330,-0.01866,1.83638,-0.00998,0.00176,1.88180,0.42225,0.51352,-0.29980,-0.58130,-4.71474,850.15563,819.72406,0.55655,14.32709,0.58130,-0.11038,6.52320,10.20619,10.09581
70.14700,1.13981,-0.02332,-0.22734,0.09008,0.11769,-1.36079,0.03330,-0.01866,1.83638,-0.00998,0.00176,1.88180,0.42225,0.51352,-0.29980,-0.58130,-4.71474,850.15563,805.74316,0.55655,14.32710,0.58130,-0.10832,6.52320,10.20619,10.09786
70.14800,1.13981,-0.02332,-0.22734,0.10128,0.12055,-1.33703,0.03330,-0.01866,1.83638,-0.00998,0.00176,1.88180,0.42225,0.51352,-0.29980,-0.58130,-4.71666,850.32879,819.72406,0.55669,14.32709,0.58130,-0.10626,6.52320,10.20619,10.09992
70.14900,1.13981,-0.02332,-0.22734,0.10128,0.12055,-1.33703,0.03330,-0.01866,1.83638,-0.00998,0.00176,1.88180,0.42225,0.51352,-0.29980,-0.58130,-4.71666,850.32879,819.72406,0.55669,14.32707,0.58130,-0.10413,6.52320,10.20619,10.10205
70.15000,0.94137,0.01603,-0.15994,0.10151,0.12250,-1.31082,0.02669,-0.01687,1.83638,-0.00903,0.00301,1.86840,0.42225,0.51352,-0.29980,-0.58130,-4.71755,850.40911,818.97613,0.55676,14.32703,0.58130,-0.10200,6.52320,10.20384,10.10183
70.15100,0.94137,0.01603,-0.15994,0.10151,0.12250,-1.31082,0.02669,-0.01687,1.83638,-0.00903,0.00301,1.86840,0.42225,0.51352,-0.29980,-0.58130,-4.71755,850.40911,805.74316,0.55676,14.32699,0.58130,-0.09997,6.52320,10.20384,10.10387
70.15200,0.94137,0.01603,-0.15994,0.09750,0.12013,-1.28529,0.02669,-0.01687,1.83638,-0.00903,0.00301,1.86840,0.42225,0.51352,-0.29980,-0.58130,-4.71946,850.58068,818.97613,0.55690,14.32693,0.58130,-0.09793,6.52320,10.20384,10.10591
70.15299,0.94137,0.01603,-0.15994,0.09750,0.12013,-1.28529,0.02669,-0.01687,1.83638,-0.00903,0.00301,1.86840,0.42225,0.51352,-0.29980,-0.58130,-4.71946,850.58068,818.97613,0.55690,14.32686,0.58130,-0.09595,6.52320,10.20384,10.10789
70.15399,0.94137,0.01603,-0.15994,0.10199,0.11962,-1.26145,0.02669,-0.01687,1.83638,-0.00903,0.00301,1.86840,0.42225,0.51352,-0.29980,-0.58130,-4.72131,850.74755,818.97613,0.55704,14.32678,0.58130,-0.09396,6.52320,10.20384,10.10987
70.15499,0.94137,0.01603,-0.15994,0.10199,0.11962,-1.26145,0.02669,-0.01687,1.83638,-0.00903,0.00301,1.86840,0.42225,0.51352,-0.29980,-0.58130,-4.72131,850.74755,807.91894,0.55704,14.32669,0.58130,-0.09194,6.52320,10.20384,10.11189
70.15599,0.94137,0.01603,-0.15994,0.10752,0.12333,-1.23679,0.02669,-0.01687,1.83638,-0.00903,0.00301,1.86840,0.42225,0.51352,-0.29980,-0.58130,-4.72319,850.91741,807.91894,0.55718,14.32659,0.58130,-0.08992,6.52320,10.20384,10.11391
70.15699,0.94137,0.01603,-0.15994,0.10752,0.12333,-1.23679,0.02669,-0.01687,1.83638,-0.00903,0.00301,1.86840,0.42225,0.51352,-0.29980,-0.58130,-4.72319,850.91741,807.91894,0.55718,14.32647,0.58130,-0.08797,6.52320,10.20384,10.11586
70.15799,0.94137,0.01603,-0.15994,0.10451,0.12493,-1.21143,0.02669,-0.01687,1.83638,-0.00903,0.00301,1.86840,0.42225,0.51352,-0.29980,-0.58130,-4.72502,851.08160,818.97613,0.55733,14.32635,0.58130,-0.08602,6.52320,10.20384,10.11781
70.15899,0.94137,0.01603,-0.15994,0.10451,0.12493,-1.21143,0.02669,-0.01687,1.83638,-0.00903,0.00301,1.86840,0.42225,0.51352,-0.29980,-0.58130,-4.72502,851.08160,818.97613,0.55733,14.32621,0.58130,-0.08426,6.52320,10.20384,10.11958
70.16000,0.97597,-0.04184,-0.09962,0.10271,0.12351,-1.18798,0.02707,-0.01888,1.83638,-0.00794,0.00433,1.85624,0.40920,0.52185,-0.29980,-0.57259,-4.77191,855.28131,818.97613,0.56072,14.32606,0.57259,-0.08230,6.52341,10.30054,10.21823
70.16100,0.97597,-0.04184,-0.09962,0.10271,0.12351,-1.18798,0.02707,-0.01888,1.83638,-0.00794,0.00433,1.85624,0.40920,0.52185,-0.29980,-0.57259,-4.77191,855.28131,819.72406,0.56072,14.32590,0.57259,-0.08042,6.52341,10.30054,10.22011
70.16200,0.97597,-0.04184,-0.09962,0.10959,0.12588,-1.16529,0.02707,-0.01888,1.83638,-0.00794,0.00433,1.85624,0.40920,0.52185,-0.29980,-0.57259,-4.77367,855.43847,819.72406,0.56086,14.32573,0.57259,-0.07854,6.52341,10.30054,10.22199
70.16300,0.97597,-0.04184,-0.09962,0.10959,0.12588,-1.16529,0.02707,-0.01888,1.83638,-0.00794,0.00433,1.85624,0.40920,0.52185,-0.29980,-0.57259,-4.77367,855.43847,822.72949,0.56086,14.32555,0.57259,-0.07665,6.52341,10.30054,10.22389
70.16400,0.97597,-0.04184,-0.09962,0.11314,0.13171,-1.14000,0.02707,-0.01888,1.83638,-0.00794,0.00433,1.85624,0.40920,0.52185,-0.29980,-0.57259,-4.77544,855.59722,823.48431,0.56100,14.32536,0.57259,-0.07475,6.52341,10.30054,10.22579
70.16500,0.97597,-0.04184,-0.09962,0.11314,0.13171,-1.14000,0.02707,-0.01888,1.83638,-0.00794,0.00433,1.85624,0.40920,0.52185,-0.29980,-0.57259,-4.77544,855.59722,823.48431,0.56100,14.32516,0.57259,-0.07295,6.52341,10.30054,10.22758
70.16600,0.97597,-0.04184,-0.09962,0.10734,0.13340,-1.11289,0.02707,-0.01888,1.83638,-0.00794,0.00433,1.85624,0.40920,0.52185,-0.29980,-0.57259,-4.77712,855.74749,823.48431,0.56114,14.32495,0.57259,-0.07116,6.52341,10.30054,10.22938
70.16699,0.97597,-0.04184,-0.09962,0.10734,0.13340,-1.11289,0.02707,-0.01888,1.83638,-0.00794,0.00433,1.85624,0.40920,0.52185,-0.29980,-0.57259,-4.77712,855.74749,823.48431,0.56114,14.32473,0.57259,-0.06957,6.52341,10.30054,10.23096
70.16799,0.97597,-0.04184,-0.09962,0.10616,0.13159,-1.08689,0.02707,-0.01888,1.83638,-0.00794,0.00433,1.85624,0.40920,0.52185,-0.29980,-0.57259,-4.77860,855.88000,823.48431,0.56126,14.32450,0.57259,-0.06799,6.52341,10.30054,10.23255
70.16899,0.97597,-0.04184,-0.09962,0.10616,0.13159,-1.08689,0.02707,-0.01888,1.83638,-0.00794,0.00433,1.85624,0.40920,0.52185,-0.29980,-0.57259,-4.77860,855.88000,823.48431,0.56126,14.32425,0.57259,-0.06649,6.52341,10.30054,10.23404
70.16999,0.90818,0.01060,-0.04446,0.11494,0.13368,-1.06094,0.02343,-0.01634,1.83638,-0.00678,0.00579,1.84529,0.39584,0.52992,-0.29980,-0.56370,-4.82447,859.96313,823.48431,0.56457,14.32400,0.56370,-0.06480,6.52365,10.39559,10.33078
70.17099,0.90818,0.01060,-0.04446,0.11494,0.13368,-1.06094,0.02343,-0.01634,1.83638,-0.00678,0.00579,1.84529,0.39584,0.52992,-0.29980,-0.56370,-4.82447,859.96313,827.27917,0.56457,14.32373,0.56370,-0.06310,6.52365,10.39559,10.33249
70.17199,0.90818,0.01060,-0.04446,0.11927,0.13859,-1.03270,0.02343,-0.01634,1.83638,-0.00678,0.00579,1.84529,0.39584,0.52992,-0.29980,-0.56370,-4.82607,860.10498,827.27917,0.56470,14.32345,0.56370,-0.06139,6.52365,10.39559,10.33419
70.17299,0.90818,0.01060,-0.04446,0.11927,0.13859,-1.03270,0.02343,-0.01634,1.83638,-0.00678,0.00579,1.84529,0.39584,0.52992,-0.29980,-0.56370,-4.82607,860.10498,827.27917,0.56470,14.32316,0.56370,-0.05978,6.52365,10.39559,10.33581
70.17400,0.90818,0.01060,-0.04446,0.11481,0.13977,-1.00387,0.02343,-0.01634,1.83638,-0.00678,0.00579,1.84529,0.39584,0.52992,-0.29980,-0.56370,-4.82758,860.23974,827.27917,0.56484,14.32286,0.56370,-0.05816,6.52365,10.39559,10.33743
70.17500,0.90818,0.01060,-0.04446,0.11481,0.13977,-1.00387,0.02343,-0.01634,1.83638,-0.00678,0.00579,1.84529,0.39584,0.52992,-0.29980,-0.56370,-4.82758,860.23974,827.27917,0.56484,14.32255,0.56370,-0.05665,6.52365,10.39559,10.33893
70.17600,0.90818,0.01060,-0.04446,0.11536,0.13948,-0.97668,0.02343,-0.01634,1.83638,-0.00678,0.00579,1.84529,0.39584,0.52992,-0.29980,-0.56370,-4.82898,860.36480,831.10913,0.56496,14.32223,0.56370,-0.05515,6.52365,10.39559,10.34044
70.17700,0.90818,0.01060,-0.04446,0.11536,0.13948,-0.97668,0.02343,-0.01634,1.83638,-0.00678,0.00579,1.84529,0.39584,0.52992,-0.29980,-0.56370,-4.82898,860.36480,831.10913,0.56496,14.32190,0.56370,-0.05357,6.52365,10.39559,10.34202
70.17800,0.90818,0.01060,-0.04446,0.12319,0.14352,-0.94888,0.02343,-0.01634,1.83638,-0.00678,0.00579,1.84529,0.39584,0.52992,-0.29980,-0.56370,-4.83046,860.49615,831.10913,0.56509,14.32155,0.56370,-0.05199,6.52365,10.39559,10.34359
70.17900,0.90818,0.01060,-0.04446,0.12319,0.14352,-0.94888,0.02343,-0.01634,1.83638,-0.00678,0.00579,1.84529,0.39584,0.52992,-0.29980,-0.56370,-4.83046,860.49615,829.57287,0.56509,14.32120,0.56370,-0.05027,6.52365,10.39559,10.34532
70.18000,0.91711,-0.01041,0.00321,0.12513,0.14776,-0.91831,0.02251,-0.01599,1.83638,-0.00550,0.00743,1.83573,0.39584,0.52992,-0.29980,-0.56370,-4.83194,860.62817,829.57287,0.56523,14.32083,0.56370,-0.04854,6.52365,10.39531,10.34677
70.18099,0.91711,-0.01041,0.00321,0.12513,0.14776,-0.91831,0.02251,-0.01599,1.83638,-0.00550,0.00743,1.83573,0.39584,0.52992,-0.29980,-0.56370,-4.83194,860.62817,829.57287,0.56523,14.32045,0.56370,-0.04681,6.52365,10.39531,10.34850
70.18199,0.91711,-0.01041,0.00321,0.12200,0.14608,-0.88764,0.02251,-0.01599,1.83638,-0.00550,0.00743,1.83573,0.39584,0.52992,-0.29980,-0.56370,-4.83355,860.77203,829.57287,0.56538,14.32007,0.56370,-0.04508,6.52365,10.39531,10.35023
70.18299,0.91711,-0.01041,0.00321,0.12200,0.14608,-0.88764,0.02251,-0.01599,1.83638,-0.00550,0.00743,1.83573,0.39584,0.52992,-0.29980,-0.56370,-4.83355,860.77203,829.57287,0.56538,14.31967,0.56370,-0.04339,6.52365,10.39531,10.35192
70.18399,0.91711,-0.01041,0.00321,0.12720,0.14300,-0.85946,0.02251,-0.01599,1.83638,-0.00550,0.00743,1.83573,0.39584,0.52992,-0.29980,-0.56370,-4.83514,860.91302,828.80694,0.56552,14.31926,0.56370,-0.04169,6.52365,10.39531,10.35362
70.18499,0.91711,-0.01041,0.00321,0.12720,0.14300,-0.85946,0.02251,-0.01599,1.83638,-0.00550,0.00743,1.83573,0.39584,0.52992,-0.29980,-0.56370,-4.83514,860.91302,828.80694,0.56552,14.31884,0.56370,-0.03990,6.52365,10.39531,10.35541
70.18599,0.91711,-0.01041,0.00321,0.13744,0.14417,-0.83196,0.02251,-0.01599,1.83638,-0.00550,0.00743,1.83573,0.39584,0.52992,-0.29980,-0.56370,-4.83681,861.06176,828.80694,0.56567,14.31841,0.56370,-0.03811,6.52365,10.39531,10.35720
70.18699,0.91711,-0.01041,0.00321,0.13744,0.14417,-0.83196,0.02251,-0.01599,1.83638,-0.00550,0.00743,1.83573,0.39584,0.52992,-0.29980,-0.56370,-4.83681,861.06176,828.80694,0.56567,14.31797,0.56370,-0.03625,6.52365,10.39531,10.35906
70.18800,0.91711,-0.01041,0.00321,0.13917,0.14526,-0.80392,0.02251,-0.01599,1.83638,-0.00550,0.00743,1.83573,0.39584,0.52992,-0.29980,-0.56370,-4.83855,861.21673,828.80694,0.56583,14.31752,0.56370,-0.03438,6.52365,10.39531,10.36092
70.18900,0.91711,-0.01041,0.00321,0.13917,0.14526,-0.80392,0.02251,-0.01599,1.83638,-0.00550,0.00743,1.83573,0.39584,0.52992,-0.29980,-0.56370,-4.83855,861.21673,828.80694,0.56583,14.31706,0.56370,-0.03258,6.52365,10.39531,10.36273
70.19000,0.93380,-0.06505,0.04346,0.13674,0.14284,-0.77755,0.02279,-0.01783,1.83638,-0.00408,0.00908,1.82763,0.38250,0.53612,-0.29980,-0.55480,-4.88159,865.02160,828.80694,0.56894,14.31659,0.55480,-0.03060,6.52391,10.48371,10.45310
70.19100,0.93380,-0.06505,0.04346,0.13674,0.14284,-0.77755,0.02279,-0.01783,1.83638,-0.00408,0.00908,1.82763,0.38250,0.53612,-0.29980,-0.55480,-4.88159,865.02160,829.57287,0.56894,14.31611,0.55480,-0.02864,6.52391,10.48371,10.45506
70.19200,0.93380,-0.06505,0.04346,0.14169,0.14281,-0.75316,0.02279,-0.01783,1.83638,-0.00408,0.00908,1.82763,0.38250,0.53612,-0.29980,-0.55480,-4.88343,865.18383,829.57287,0.56911,14.31562,0.55480,-0.02668,6.52391,10.48371,10.45702
70.19300,0.93380,-0.06505,0.04346,0.14169,0.14281,-0.75316,0.02279,-0.01783,1.83638,-0.00408,0.00908,1.82763,0.38250,0.53612,-0.29980,-0.55480,-4.88343,865.18383,829.57287,0.56911,14.31513,0.55480,-0.02463,6.52391,10.48371,10.45907
70.19400,0.93380,-0.06505,0.04346,0.14711,0.14753,-0.72736,0.02279,-0.01783,1.83638,-0.00408,0.00908,1.82763,0.38250,0.53612,-0.29980,-0.55480,-4.88534,865.35363,830.34033,0.56928,14.31462,0.55480,-0.02258,6.52391,10.48371,10.46112
70.19499,0.93380,-0.06505,0.04346,0.14711,0.14753,-0.72736,0.02279,-0.01783,1.83638,-0.00408,0.00908,1.82763,0.38250,0.53612,-0.29980,-0.55480,-4.88534,865.35363,832.65112,0.56928,14.31410,0.55480,-0.02053,6.52391,10.48371,10.46317
70.19599,0.93380,-0.06505,0.04346,0.14310,0.14974,-0.69929,0.02279,-0.01783,1.83638,-0.00408,0.00908,1.82763,0.38250,0.53612,-0.29980,-0.55480,-4.88725,865.52270,830.34033,0.56946,14.31358,0.55480,-0.01849,6.52391,10.48371,10.46521
70.19699,0.93380,-0.06505,0.04346,0.14310,0.14974,-0.69929,0.02279,-0.01783,1.83638,-0.00408,0.00908,1.82763,0.38250,0.53612,-0.29980,-0.55480,-4.88725,865.52270,829.57287,0.56946,14.31304,0.55480,-0.01660,6.52391,10.48371,10.46710
70.19799,0.93380,-0.06505,0.04346,0.13937,0.14694,-0.67169,0.02279,-0.01783,1.83638,-0.00408,0.00908,1.82763,0.38250,0.53612,-0.29980,-0.55480,-4.88902,865.67919,832.65112,0.56963,14.31250,0.55480,-0.01471,6.52391,10.48371,10.46900
70.19899,0.93380,-0.06505,0.04346,0.13937,0.14694,-0.67169,0.02279,-0.01783,1.83638,-0.00408,0.00908,1.82763,0.38250,0.53612,-0.29980,-0.55480,-4.88902,865.67919,832.65112,0.56963,14.31194,0.55480,-0.01290,6.52391,10.48371,10.47080
70.19999,0.91849,-0.04531,0.07757,0.14558,0.14565,-0.64483,0.02225,-0.01689,1.83638,-0.00250,0.01080,1.82084,0.38250,0.53612,-0.29980,-0.55480,-4.89057,865.81628,832.65112,0.56978,14.31138,0.55480,-0.01109,6.52391,10.48341,10.47231
70.20099,0.91849,-0.04531,0.07757,0.14558,0.14565,-0.64483,0.02225,-0.01689,1.83638,-0.00250,0.01080,1.82084,0.38250,0.53612,-0.29980,-0.55480,-4.89057,865.81628,832.65112,0.56978,14.31081,0.55480,-0.00929,6.52391,10.48341,10.47412
70.20200,0.91849,-0.04531,0.07757,0.15154,0.14691,-0.61632,0.02225,-0.01689,1.83638,-0.00250,0.01080,1.82084,0.38250,0.53612,-0.29980,-0.55480,-4.89225,865.96533,832.65112,0.56995,14.31022,0.55480,-0.00748,6.52391,10.48341,10.47592
70.20300,0.91849,-0.04531,0.07757,0.15154,0.14691,-0.61632,0.02225,-0.01689,1.83638,-0.00250,0.01080,1.82084,0.38250,0.53612,-0.29980,-0.55480,-4.89225,865.96533,833.42425,0.56995,14.30963,0.55480,-0.00581,6.52391,10.48341,10.47759
70.20400,0.91849,-0.04531,0.07757,0.14959,0.14487,-0.58666,0.02225,-0.01689,1.83638,-0.00250,0.01080,1.82084,0.38250,0.53612,-0.29980,-0.55480,-4.89381,866.10369,833.42425,0.57011,14.30902,0.55480,-0.00414,6.52391,10.48341,10.47927
70.20500,0.91849,-0.04531,0.07757,0.14959,0.14487,-0.58666,0.02225,-0.01689,1.83638,-0.00250,0.01080,1.82084,0.38250,0.53612,-0.29980,-0.55480,-4.89381,866.10369,841.23516,0.57011,14.30840,0.55480,-0.00267,6.52391,10.48341,10.48073
70.20600,0.91849,-0.04531,0.07757,0.14983,0.14075,-0.55838,0.02225,-0.01689,1.83638,-0.00250,0.01080,1.82084,0.38250,0.53612,-0.29980,-0.55480,-4.89518,866.22491,841.23516,0.57026,14.30778,0.55480,-0.00120,6.52391,10.48341,10.48220
70.20700,0.91849,-0.04531,0.07757,0.14983,0.14075,-0.55838,0.02225,-0.01689,1.83638,-0.00250,0.01080,1.82084,0.38250,0.53612,-0.29980,-0.55480,-4.89518,866.22491,841.23516,0.57026,14.30715,0.55480,0.00021,6.52391,10.48341,10.48362
70.20800,0.91849,-0.04531,0.07757,0.15570,0.14074,-0.53071,0.02225,-0.01689,1.83638,-0.00250,0.01080,1.82084,0.38250,0.53612,-0.29980,-0.55480,-4.89651,866.34240,841.23516,0.57040,14.30650,0.55480,0.00163,6.52391,10.48341,10.48504
70.20899,0.91849,-0.04531,0.07757,0.15570,0.14074,-0.53071,0.02225,-0.01689,1.83638,-0.00250,0.01080,1.82084,0.38250,0.53612,-0.29980,-0.55480,-4.89651,866.34240,844.40063,0.57040,14.30585,0.55480,0.00310,6.52391,10.48341,10.48652
70.20999,0.95908,-0.07854,0.10453,0.15487,0.14211,-0.50182,0.02458,-0.01789,1.83638,-0.00083,0.01246,1.81546,0.36900,0.53876,-0.29980,-0.54580,-4.93223,869.47698,844.40063,0.57298,14.30520,0.54580,0.00473,6.52421,10.55680,10.56154
70.21099,0.95908,-0.07854,0.10453,0.15487,0.14211,-0.50182,0.02458,-0.01789,1.83638,-0.00083,0.01246,1.81546,0.36900,0.53876,-0.29980,-0.54580,-4.93223,869.47698,849.99804,0.57298,14.30453,0.54580,0.00628,6.52421,10.55680,10.56309
70.21199,0.95908,-0.07854,0.10453,0.14654,0.13838,-0.47375,0.02458,-0.01789,1.83638,-0.00083,0.01246,1.81546,0.36900,0.53876,-0.29980,-0.54580,-4.93368,869.60473,850.80364,0.57314,14.30385,0.54580,0.00783,6.52421,10.55680,10.56464
70.21299,0.95908,-0.07854,0.10453,0.14654,0.13838,-0.47375,0.02458,-0.01789,1.83638,-0.00083,0.01246,1.81546,0.36900,0.53876,-0.29980,-0.54580,-4.93368,869.60473,850.80364,0.57314,14.30317,0.54580,0.00929,6.52421,10.55680,10.56610
70.21399,0.95908,-0.07854,0.10453,0.14480,0.13332,-0.44860,0.02458,-0.01789,1.83638,-0.00083,0.01246,1.81546,0.36900,0.53876,-0.29980,-0.54580,-4.93505,869.72460,844.40063,0.57329,14.30247,0.54580,0.01075,6.52421,10.55680,10.56755
70.21499,0.95908,-0.07854,0.10453,0.14480,0.13332,-0.44860,0.02458,-0.01789,1.83638,-0.00083,0.01246,1.81546,0.36900,0.53876,-0.29980,-0.54580,-4.93505,869.72460,842.81488,0.57329,14.30176,0.54580,0.01229,6.52421,10.55680,10.56909
70.21600,0.95908,-0.07854,0.10453,0.14907,0.13325,-0.42359,0.02458,-0.01789,1.83638,-0.00083,0.01246,1.81546,0.36900,0.53876,-0.29980,-0.54580,-4.93648,869.85137,842.81488,0.57345,14.30104,0.54580,0.01383,6.52421,10.55680,10.57063
70.21700,0.95908,-0.07854,0.10453,0.14907,0.13325,-0.42359,0.02458,-0.01789,1.83638,-0.00083,0.01246,1.81546,0.36900,0.53876,-0.29980,-0.54580,-4.93648,869.85137,842.81488,0.57345,14.30031,0.54580,0.01550,6.52421,10.55680,10.57231
70.21800,0.95908,-0.07854,0.10453,0.14576,0.13399,-0.39575,0.02458,-0.01789,1.83638,-0.00083,0.01246,1.81546,0.36900,0.53876,-0.29980,-0.54580,-4.93805,869.98931,842.81488,0.57362,14.29957,0.54580,0.01718,6.52421,10.55680,10.57399
70.21900,0.95908,-0.07854,0.10453,0.14576,0.13399,-0.39575,0.02458,-0.01789,1.83638,-0.00083,0.01246,1.81546,0.36900,0.53876,-0.29980,-0.54580,-4.93805,869.98931,842.81488,0.57362,14.29882,0.54580,0.01888,6.52421,10.55680,10.57568
70.22000,1.00049,-0.12394,0.12478,0.13779,0.13026,-0.36690,0.02819,-0.02013,1.83638,0.00079,0.01407,1.81144,0.35985,0.54356,-0.29980,-0.53970,-4.96972,872.76031,842.81488,0.57592,14.29805,0.53970,0.02070,6.52443,10.62111,10.64181
70.22100,1.00049,-0.12394,0.12478,0.13779,0.13026,-0.36690,0.02819,-0.02013,1.83638,0.00079,0.01407,1.81144,0.35985,0.54356,-0.29980,-0.53970,-4.96972,872.76031,842.81488,0.57592,14.29728,0.53970,0.02256,6.52443,10.62111,10.64367
70.22200,1.00049,-0.12394,0.12478,0.13781,0.12652,-0.33895,0.02819,-0.02013,1.83638,0.00079,0.01407,1.81144,0.35985,0.54356,-0.29980,-0.53970,-4.97146,872.91284,842.81488,0.57610,14.29650,0.53970,0.02442,6.52443,10.62111,10.64553
70.22299,1.00049,-0.12394,0.12478,0.13781,0.12652,-0.33895,0.02819,-0.02013,1.83638,0.00079,0.01407,1.81144,0.35985,0.54356,-0.29980,-0.53970,-4.97146,872.91284,837.31140,0.57610,14.29571,0.53970,0.02638,6.52443,10.62111,10.64750
70.22399,1.00049,-0.12394,0.12478,0.14018,0.12594,-0.31007,0.02819,-0.02013,1.83638,0.00079,0.01407,1.81144,0.35985,0.54356,-0.29980,-0.53970,-4.97329,873.07385,842.81488,0.57630,14.29491,0.53970,0.02835,6.52443,10.62111,10.64946
70.22499,1.00049,-0.12394,0.12478,0.14018,0.12594,-0.31007,0.02819,-0.02013,1.83638,0.00079,0.01407,1.81144,0.35985,0.54356,-0.29980,-0.53970,-4.97329,873.07385,837.31140,0.57630,14.29410,0.53970,0.03028,6.52443,10.62111,10.65140
70.22599,1.00049,-0.12394,0.12478,0.13322,0.12272,-0.27973,0.02819,-0.02013,1.83638,0.00079,0.01407,1.81144,0.35985,0.54356,-0.29980,-0.53970,-4.97510,873.23254,834.97479,0.57649,14.29328,0.53970,0.03222,6.52443,10.62111,10.65333
70.22699,1.00049,-0.12394,0.12478,0.13322,0.12272,-0.27973,0.02819,-0.02013,1.83638,0.00079,0.01407,1.81144,0.35985,0.54356,-0.29980,-0.53970,-4.97510,873.23254,834.97479,0.57649,14.29246,0.53970,0.03397,6.52443,10.62111,10.65508
70.22799,1.00049,-0.12394,0.12478,0.12464,0.11492,-0.25110,0.02819,-0.02013,1.83638,0.00079,0.01407,1.81144,0.35985,0.54356,-0.29980,-0.53970,-4.97674,873.37615,834.97479,0.57667,14.29162,0.53970,0.03572,6.52443,10.62111,10.65683
70.22899,1.00049,-0.12394,0.12478,0.12464,0.11492,-0.25110,0.02819,-0.02013,1.83638,0.00079,0.01407,1.81144,0.35985,0.54356,-0.29980,-0.53970,-4.97674,873.37615,834.97479,0.57667,14.29076,0.53970,0.03735,6.52443,10.62111,10.65846
70.23000,0.99768,-0.10112,0.13786,0.12465,0.10942,-0.22541,0.03045,-0.01958,1.83638,0.00229,0.01552,1.80885,0.34635,0.54260,-0.29980,-0.53070,-5.00495,875.82385,834.97479,0.57872,14.28990,0.53070,0.03909,6.52479,10.67815,10.71724
70.23100,0.99768,-0.10112,0.13786,0.12465,0.10942,-0.22541,0.03045,-0.01958,1.83638,0.00229,0.01552,1.80885,0.34635,0.54260,-0.29980,-0.53070,-5.00495,875.82385,834.97479,0.57872,14.28903,0.53070,0.04079,6.52479,10.67815,10.71894
70.23200,0.99768,-0.10112,0.13786,0.12478,0.10762,-0.20027,0.03045,-0.01958,1.83638,0.00229,0.01552,1.80885,0.34635,0.54260,-0.29980,-0.53070,-5.00654,875.96289,834.97479,0.57890,14.28815,0.53070,0.04249,6.52479,10.67815,10.72064
70.23300,0.99768,-0.10112,0.13786,0.12478,0.10762,-0.20027,0.03045,-0.01958,1.83638,0.00229,0.01552,1.80885,0.34635,0.54260,-0.29980,-0.53070,-5.00654,875.96289,842.81488,0.57890,14.28726,0.53070,0.04407,6.52479,10.67815,10.72222
70.23400,0.99768,-0.10112,0.13786,0.11819,0.10328,-0.17485,0.03045,-0.01958,1.83638,0.00229,0.01552,1.80885,0.34635,0.54260,-0.29980,-0.53070,-5.00801,876.09155,838.09326,0.57908,14.28635,0.53070,0.04564,6.52479,10.67815,10.72379
70.23500,0.99768,-0.10112,0.13786,0.11819,0.10328,-0.17485,0.03045,-0.01958,1.83638,0.00229,0.01552,1.80885,0.34635,0.54260,-0.29980,-0.53070,-5.00801,876.09155,842.81488,0.57908,14.28544,0.53070,0.04704,6.52479,10.67815,10.72520
70.23600,0.99768,-0.10112,0.13786,0.11490,0.09712,-0.15023,0.03045,-0.01958,1.83638,0.00229,0.01552,1.80885,0.34635,0.54260,-0.29980,-0.53070,-5.00932,876.20605,842.81488,0.57924,14.28452,0.53070,0.04845,6.52479,10.67815,10.72660
70.23699,0.99768,-0.10112,0.13786,0.11490,0.09712,-0.15023,0.03045,-0.01958,1.83638,0.00229,0.01552,1.80885,0.34635,0.54260,-0.29980,-0.53070,-5.00932,876.20605,843.60705,0.57924,14.28358,0.53070,0.04984,6.52479,10.67815,10.72799
70.23799,0.99768,-0.10112,0.13786,0.11823,0.09532,-0.12519,0.03045,-0.01958,1.83638,0.00229,0.01552,1.80885,0.34635,0.54260,-0.29980,-0.53070,-5.01062,876.31958,843.60705,0.57941,14.28264,0.53070,0.05123,6.52479,10.67815,10.72938
70.23899,0.99768,-0.10112,0.13786,0.11823,0.09532,-0.12519,0.03045,-0.01958,1.83638,0.00229,0.01552,1.80885,0.34635,0.54260,-0.29980,-0.53070,-5.01062,876.31958,843.60705,0.57941,14.28168,0.53070,0.05269,6.52479,10.67815,10.73084
70.23999,0.89679,-0.08334,0.14443,0.11637,0.09505,-0.09828,0.02728,-0.01836,1.83638,0.00372,0.01681,1.80755,0.34635,0.54260,-0.29980,-0.53070,-5.01141,876.38916,845.19567,0.57955,14.28072,0.53070,0.05415,6.52479,10.67692,10.73108
70.24099,0.89679,-0.08334,0.14443,0.11637,0.09505,-0.09828,0.02728,-0.01836,1.83638,0.00372,0.01681,1.80755,0.34635,0.54260,-0.29980,-0.53070,-5.01141,876.38916,843.60705,0.57955,14.27975,0.53070,0.05556,6.52479,10.67692,10.73249
70.24199,0.89679,-0.08334,0.14443,0.10880,0.08986,-0.07186,0.02728,-0.01836,1.83638,0.00372,0.01681,1.80755,0.34635,0.54260,-0.29980,-0.53070,-5.01273,876.50433,845.19567,0.57972,14.27877,0.53070,0.05697,6.52479,10.67692,10.73390
70.24299,0.89679,-0.08334,0.14443,0.10880,0.08986,-0.07186,0.02728,-0.01836,1.83638,0.00372,0.01681,1.80755,0.34635,0.54260,-0.29980,-0.53070,-5.01273,876.50433,845.19567,0.57972,14.27778,0.53070,0.05831,6.52479,10.67692,10.73524
70.24400,0.89679,-0.08334,0.14443,0.10833,0.08369,-0.04828,0.02728,-0.01836,1.83638,0.00372,0.01681,1.80755,0.34635,0.54260,-0.29980,-0.53070,-5.01398,876.61358,845.99230,0.57989,14.27678,0.53070,0.05965,6.52479,10.67692,10.73658
70.24500,0.89679,-0.08334,0.14443,0.10833,0.08369,-0.04828,0.02728,-0.01836,1.83638,0.00372,0.01681,1.80755,0.34635,0.54260,-0.29980,-0.53070,-5.01398,876.61358,846.79046,0.57989,14.27577,0.53070,0.06106,6.52479,10.67692,10.73799
70.24600,0.89679,-0.08334,0.14443,0.11312,0.08253,-0.02538,0.02728,-0.01836,1.83638,0.00372,0.01681,1.80755,0.34635,0.54260,-0.29980,-0.53070,-5.01530,876.72875,846.79046,0.58006,14.27475,0.53070,0.06247,6.52479,10.67692,10.73940
70.24700,0.89679,-0.08334,0.14443,0.11312,0.08253,-0.02538,0.02728,-0.01836,1.83638,0.00372,0.01681,1.80755,0.34635,0.54260,-0.29980,-0.53070,-5.01530,876.72875,846.79046,0.58006,14.27372,0.53070,0.06396,6.52479,10.67692,10.74088
70.24800,0.89679,-0.08334,0.14443,0.11027,0.08165,-0.00093,0.02728,-0.01836,1.83638,0.00372,0.01681,1.80755,0.34635,0.54260,-0.29980,-0.53070,-5.01668,876.85009,848.39117,0.58024,14.27269,0.53070,0.06544,6.52479,10.67692,10.74237
70.24900,0.89679,-0.08334,0.14443,0.11027,0.08165,-0.00093,0.02728,-0.01836,1.83638,0.00372,0.01681,1.80755,0.34635,0.54260,-0.29980,-0.53070,-5.01668,876.85009,848.39117,0.58024,14.27164,0.53070,0.06689,6.52479,10.67692,10.74382
70.25000,0.84575,-0.09841,0.14496,0.10357,0.07625,0.02347,0.02419,-0.01828,1.83638,0.00508,0.01792,1.80748,0.33255,0.54942,-0.29980,-0.52150,-5.06107,880.69311,848.39117,0.58344,14.27059,0.52150,0.06852,6.52520,10.76890,10.83742
70.25099,0.84575,-0.09841,0.14496,0.10357,0.07625,0.02347,0.02419,-0.01828,1.83638,0.00508,0.01792,1.80748,0.33255,0.54942,-0.29980,-0.52150,-5.06107,880.69311,848.39117,0.58344,14.26953,0.52150,0.07014,6.52520,10.76890,10.83904
70.25199,0.84575,-0.09841,0.14496,0.10496,0.07156,0.04692,0.02419,-0.01828,1.83638,0.00508,0.01792,1.80748,0.33255,0.54942,-0.29980,-0.52150,-5.06259,880.82470,848.39117,0.58363,14.26846,0.52150,0.07176,6.52520,10.76890,10.84066
70.25299,0.84575,-0.09841,0.14496,0.10496,0.07156,0.04692,0.02419,-0.01828,1.83638,0.00508,0.01792,1.80748,0.33255,0.54942,-0.29980,-0.52150,-5.06259,880.82470,848.39117,0.58363,14.26738,0.52150,0.07343,6.52520,10.76890,10.84233
70.25399,0.84575,-0.09841,0.14496,0.10909,0.07061,0.07142,0.02419,-0.01828,1.83638,0.00508,0.01792,1.80748,0.33255,0.54942,-0.29980,-0.52150,-5.06415,880.96063,848.39117,0.58383,14.26630,0.52150,0.07510,6.52520,10.76890,10.84401
70.25499,0.84575,-0.09841,0.14496,0.10909,0.07061,0.07142,0.02419,-0.01828,1.83638,0.00508,0.01792,1.80748,0.33255,0.54942,-0.29980,-0.52150,-5.06415,880.96063,848.39117,0.58383,14.26521,0.52150,0.07670,6.52520,10.76890,10.84561
70.25599,0.84575,-0.09841,0.14496,0.10661,0.06780,0.09710,0.02419,-0.01828,1.83638,0.00508,0.01792,1.80748,0.33255,0.54942,-0.29980,-0.52150,-5.06564,881.09045,848.39117,0.58402,14.26411,0.52150,0.07830,6.52520,10.76890,10.84720
70.25700,0.84575,-0.09841,0.14496,0.10661,0.06780,0.09710,0.02419,-0.01828,1.83638,0.00508,0.01792,1.80748,0.33255,0.54942,-0.29980,-0.52150,-5.06564,881.09045,845.99230,0.58402,14.26300,0.52150,0.07970,6.52520,10.76890,10.84860
70.25800,0.84575,-0.09841,0.14496,0.10485,0.06255,0.12130,0.02419,-0.01828,1.83638,0.00508,0.01792,1.80748,0.33255,0.54942,-0.29980,-0.52150,-5.06695,881.20422,845.99230,0.58421,14.26188,0.52150,0.08110,6.52520,10.76890,10.85001
70.25900,0.84575,-0.09841,0.14496,0.10485,0.06255,0.12130,0.02419,-0.01828,1.83638,0.00508,0.01792,1.80748,0.33255,0.54942,-0.29980,-0.52150,-5.06695,881.20422,844.40063,0.58421,14.26076,0.52150,0.08242,6.52520,10.76890,10.85132
70.26000,0.94596,-0.08720,0.13939,0.10973,0.06141,0.14391,0.02819,-0.01715,1.83638,0.00651,0.01890,1.80861,0.31904,0.54235,-0.29980,-0.51250,-5.08214,882.49407,845.99230,0.58534,14.25963,0.51250,0.08380,6.52565,10.79874,10.88254
70.26100,0.94596,-0.08720,0.13939,0.10973,0.06141,0.14391,0.02819,-0.01715,1.83638,0.00651,0.01890,1.80861,0.31904,0.54235,-0.29980,-0.51250,-5.08214,882.49407,845.99230,0.58534,14.25849,0.51250,0.08521,6.52565,10.79874,10.88395
70.26200,0.94596,-0.08720,0.13939,0.11110,0.06288,0.16684,0.02819,-0.01715,1.83638,0.00651,0.01890,1.80861,0.31904,0.54235,-0.29980,-0.51250,-5.08346,882.60858,845.99230,0.58553,14.25735,0.51250,0.08662,6.52565,10.79874,10.88536
70.26300,0.94596,-0.08720,0.13939,0.11110,0.06288,0.16684,0.02819,-0.01715,1.83638,0.00651,0.01890,1.80861,0.31904,0.54235,-0.29980,-0.51250,-5.08346,882.60858,847.59008,0.58553,14.25620,0.51250,0.08797,6.52565,10.79874,10.88671
70.26399,0.94596,-0.08720,0.13939,0.10568,0.05948,0.18891,0.02819,-0.01715,1.83638,0.00651,0.01890,1.80861,0.31904,0.54235,-0.29980,-0.51250,-5.08472,882.71777,847.59008,0.58571,14.25504,0.51250,0.08932,6.52565,10.79874,10.88806
70.26499,0.94596,-0.08720,0.13939,0.10568,0.05948,0.18891,0.02819,-0.01715,1.83638,0.00651,0.01890,1.80861,0.31904,0.54235,-0.29980,-0.51250,-5.08472,882.71777,849.19384,0.58571,14.25388,0.51250,0.09055,6.52565,10.79874,10.88929
70.26599,0.94596,-0.08720,0.13939,0.10577,0.05375,0.20813,0.02819,-0.01715,1.83638,0.00651,0.01890,1.80861,0.31904,0.54235,-0.29980,-0.51250,-5.08587,882.81781,853.22991,0.58589,14.25271,0.51250,0.09178,6.52565,10.79874,10.89053
70.26699,0.94596,-0.08720,0.13939,0.10577,0.05375,0.20813,0.02819,-0.01715,1.83638,0.00651,0.01890,1.80861,0.31904,0.54235,-0.29980,-0.51250,-5.08587,882.81781,853.22991,0.58589,14.25153,0.51250,0.09305,6.52565,10.79874,10.89179
70.26799,0.94596,-0.08720,0.13939,0.11234,0.05291,0.22662,0.02819,-0.01715,1.83638,0.00651,0.01890,1.80861,0.31904,0.54235,-0.29980,-0.51250,-5.08705,882.92004,853.22991,0.58607,14.25035,0.51250,0.09431,6.52565,10.79874,10.89305
70.26899,0.94596,-0.08720,0.13939,0.11234,0.05291,0.22662,0.02819,-0.01715,1.83638,0.00651,0.01890,1.80861,0.31904,0.54235,-0.29980,-0.51250,-5.08705,882.92004,854.04180,0.58607,14.24916,0.51250,0.09562,6.52565,10.79874,10.89437
70.26999,0.88226,-0.10476,0.12858,0.11221,0.05347,0.24717,0.02651,-0.01718,1.83638,0.00800,0.01979,1.81083,0.31904,0.54235,-0.29980,-0.51250,-5.08805,883.00683,854.04180,0.58624,14.24796,0.51250,0.09694,6.52565,10.79825,10.89519
70.27100,0.88226,-0.10476,0.12858,0.11221,0.05347,0.24717,0.02651,-0.01718,1.83638,0.00800,0.01979,1.81083,0.31904,0.54235,-0.29980,-0.51250,-5.08805,883.00683,854.04180,0.58624,14.24676,0.51250,0.09820,6.52565,10.79825,10.89645
70.27200,0.88226,-0.10476,0.12858,0.10680,0.04925,0.26826,0.02651,-0.01718,1.83638,0.00800,0.01979,1.81083,0.31904,0.54235,-0.29980,-0.51250,-5.08923,883.10894,858.94537,0.58642,14.24555,0.51250,0.09946,6.52565,10.79825,10.89771
70.27300,0.88226,-0.10476,0.12858,0.10680,0.04925,0.26826,0.02651,-0.01718,1.83638,0.00800,0.01979,1.81083,0.31904,0.54235,-0.29980,-0.51250,-5.08923,883.10894,854.04180,0.58642,14.24434,0.51250,0.10071,6.52565,10.79825,10.89896
70.27400,0.88226,-0.10476,0.12858,0.10932,0.04421,0.28796,0.02651,-0.01718,1.83638,0.00800,0.01979,1.81083,0.31904,0.54235,-0.29980,-0.51250,-5.09039,883.20996,854.04180,0.58660,14.24312,0.51250,0.10195,6.52565,10.79825,10.90020
70.27500,0.88226,-0.10476,0.12858,0.10932,0.04421,0.28796,0.02651,-0.01718,1.83638,0.00800,0.01979,1.81083,0.31904,0.54235,-0.29980,-0.51250,-5.09039,883.20996,853.22991,0.58660,14.24190,0.51250,0.10330,6.52565,10.79825,10.90155
70.27600,0.88226,-0.10476,0.12858,0.11673,0.04239,0.30758,0.02651,-0.01718,1.83638,0.00800,0.01979,1.81083,0.31904,0.54235,-0.29980,-0.51250,-5.09165,883.31890,853.22991,0.58679,14.24067,0.51250,0.10464,6.52565,10.79825,10.90289
70.27700,0.88226,-0.10476,0.12858,0.11673,0.04239,0.30758,0.02651,-0.01718,1.83638,0.00800,0.01979,1.81083,0.31904,0.54235,-0.29980,-0.51250,-5.09165,883.31890,853.22991,0.58679,14.23943,0.51250,0.10598,6.52565,10.79825,10.90423
70.27799,0.88226,-0.10476,0.12858,0.11760,0.03903,0.32749,0.02651,-0.01718,1.83638,0.00800,0.01979,1.81083,0.31904,0.54235,-0.29980,-0.51250,-5.09290,883.42724,853.22991,0.58698,14.23818,0.51250,0.10732,6.52565,10.79825,10.90557
70.27899,0.88226,-0.10476,0.12858,0.11760,0.03903,0.32749,0.02651,-0.01718,1.83638,0.00800,0.01979,1.81083,0.31904,0.54235,-0.29980,-0.51250,-5.09290,883.42724,852.41961,0.58698,14.23693,0.51250,0.10850,6.52565,10.79825,10.90676
70.27999,0.93340,-0.20766,0.11378,0.11615,0.03299,0.34515,0.02932,-0.02211,1.83638,0.00955,0.02054,1.81402,0.30570,0.53609,-0.29980,-0.50360,-5.10983,884.86108,856.48657,0.58824,14.23567,0.50360,0.10976,6.52614,10.83207,10.94183
70.28099,0.93340,-0.20766,0.11378,0.11615,0.03299,0.34515,0.02932,-0.02211,1.83638,0.00955,0.02054,1.81402,0.30570,0.53609,-0.29980,-0.50360,-5.10983,884.86108,856.48657,0.58824,14.23441,0.50360,0.11095,6.52614,10.83207,10.94302
70.28199,0.93340,-0.20766,0.11378,0.11959,0.03099,0.36008,0.02932,-0.02211,1.83638,0.00955,0.02054,1.81402,0.30570,0.53609,-0.29980,-0.50360,-5.11094,884.95721,853.22991,0.58843,14.23313,0.50360,0.11214,6.52614,10.83207,10.94421
70.28299,0.93340,-0.20766,0.11378,0.11959,0.03099,0.36008,0.02932,-0.02211,1.83638,0.00955,0.02054,1.81402,0.30570,0.53609,-0.29980,-0.50360,-5.11094,884.95721,853.22991,0.58843,14.23185,0.50360,0.11336,6.52614,10.83207,10.94543
70.28399,0.93340,-0.20766,0.11378,0.12090,0.03241,0.37442,0.02932,-0.02211,1.83638,0.00955,0.02054,1.81402,0.30570,0.53609,-0.29980,-0.50360,-5.11209,885.05627,853.22991,0.58861,14.23057,0.50360,0.11459,6.52614,10.83207,10.94666
70.28500,0.93340,-0.20766,0.11378,0.12090,0.03241,0.37442,0.02932,-0.02211,1.83638,0.00955,0.02054,1.81402,0.30570,0.53609,-0.29980,-0.50360,-5.11209,885.05627,853.22991,0.58861,14.22927,0.50360,0.11574,6.52614,10.83207,10.94781
70.28600,0.93340,-0.20766,0.11378,0.11719,0.02909,0.38815,0.02932,-0.02211,1.83638,0.00955,0.02054,1.81402,0.30570,0.53609,-0.29980,-0.50360,-5.11316,885.14953,853.22991,0.58880,14.22797,0.50360,0.11689,6.52614,10.83207,10.94896
70.28700,0.93340,-0.20766,0.11378,0.11719,0.02909,0.38815,0.02932,-0.02211,1.83638,0.00955,0.02054,1.81402,0.30570,0.53609,-0.29980,-0.50360,-5.11316,885.14953,856.48657,0.58880,14.22666,0.50360,0.11790,6.52614,10.83207,10.94997
70.28800,0.93340,-0.20766,0.11378,0.12000,0.02208,0.39994,0.02932,-0.02211,1.83638,0.00955,0.02054,1.81402,0.30570,0.53609,-0.29980,-0.50360,-5.11411,885.23114,856.48657,0.58897,14.22535,0.50360,0.11891,6.52614,10.83207,10.95098
70.28900,0.93340,-0.20766,0.11378,0.12000,0.02208,0.39994,0.02932,-0.02211,1.83638,0.00955,0.02054,1.81402,0.30570,0.53609,-0.29980,-0.50360,-5.11411,885.23114,856.48657,0.58897,14.22403,0.50360,0.11992,6.52614,10.83207,10.95199
70.29000,0.86778,-0.13238,0.09363,0.13063,0.01876,0.41172,0.02750,-0.02008,1.83638,0.01121,0.02111,1.81795,0.30570,0.53609,-0.29980,-0.50360,-5.11457,885.27136,856.48657,0.58911,14.22271,0.50360,0.12093,6.52614,10.83104,10.95198
70.29100,0.86778,-0.13238,0.09363,0.13063,0.01876,0.41172,0.02750,-0.02008,1.83638,0.01121,0.02111,1.81795,0.30570,0.53609,-0.29980,-0.50360,-5.11457,885.27136,853.22991,0.58911,14.22138,0.50360,0.12202,6.52614,10.83104,10.95306
