time,target gyro x,target gyro y,target gyro z,gyro x,gyro y,gyro z,target angle x,target angle y,target angle z,angle x,angle y,angle z,target vel z,vel z,target pos z,pos z,desire thrust,desire rotor speed,rotor speed,motor_output,bettery voltage,height,thrust,K_T,acc_z_d,acc_z_com,,,,,,,,,,,,,,,,,,,,,,,,,
46.14099,0.63794,0.1335,0.3984,-0.079,-0.2081,0.06411,0.04224,0.00751,2.01787,0.04918,0.02086,1.93695,0.02055,0.00509,-0.65019,-0.66389,-4.49328,830.02301,825.75701,0.56861,13.61455,0.66389,-0.10559,6.52204,9.72738,9.62179,,,,,,,,,,,,,,,,,,,,,,,,,
46.14199,0.63794,0.1335,0.3984,-0.07473,-0.20717,0.06079,0.04224,0.00751,2.01787,0.04918,0.02086,1.93695,0.02055,0.00509,-0.65019,-0.66389,-4.49347,830.04003,829.57287,0.56865,13.61422,0.66389,-0.10539,6.52204,9.72738,9.62199,,,,,,,,,,,,,,,,,,,,,,,,,
46.143,0.63794,0.1335,0.3984,-0.07473,-0.20717,0.06079,0.04224,0.00751,2.01787,0.04918,0.02086,1.93695,0.02055,0.00509,-0.65019,-0.66389,-4.49347,830.04003,831.10913,0.56865,13.61388,0.66389,-0.10518,6.52204,9.72738,9.6222,,,,,,,,,,,,,,,,,,,,,,,,,
46.144,0.63794,0.1335,0.3984,-0.07742,-0.21066,0.05758,0.04224,0.00751,2.01787,0.04918,0.02086,1.93695,0.02055,0.00509,-0.65019,-0.66389,-4.4936,830.052,831.10913,0.56869,13.61356,0.66389,-0.10511,6.52204,9.72738,9.62227,,,,,,,,,,,,,,,,,,,,,,,,,
46.145,0.63794,0.1335,0.3984,-0.07742,-0.21066,0.05758,0.04224,0.00751,2.01787,0.04918,0.02086,1.93695,0.02055,0.00509,-0.65019,-0.66389,-4.4936,830.052,825.75701,0.56869,13.61324,0.66389,-0.10503,6.52204,9.72738,9.62234,,,,,,,,,,,,,,,,,,,,,,,,,
46.14599,0.63794,0.1335,0.3984,-0.07183,-0.21225,0.05323,0.04224,0.00751,2.01787,0.04918,0.02086,1.93695,0.02055,0.00509,-0.65019,-0.66389,-4.49363,830.05548,825.75701,0.56872,13.61292,0.66389,-0.10503,6.52204,9.72738,9.62235,,,,,,,,,,,,,,,,,,,,,,,,,
46.14699,0.63794,0.1335,0.3984,-0.07183,-0.21225,0.05323,0.04224,0.00751,2.01787,0.04918,0.02086,1.93695,0.02055,0.00509,-0.65019,-0.66389,-4.49363,830.05548,824.99804,0.56872,13.61261,0.66389,-0.10502,6.52204,9.72738,9.62236,,,,,,,,,,,,,,,,,,,,,,,,,
46.14799,0.63794,0.1335,0.3984,-0.06771,-0.21107,0.05061,0.04224,0.00751,2.01787,0.04918,0.02086,1.93695,0.02055,0.00509,-0.65019,-0.66389,-4.49365,830.05682,824.99804,0.56875,13.61231,0.66389,-0.105,6.52204,9.72738,9.62238,,,,,,,,,,,,,,,,,,,,,,,,,
46.14899,0.63794,0.1335,0.3984,-0.06771,-0.21107,0.05061,0.04224,0.00751,2.01787,0.04918,0.02086,1.93695,0.02055,0.00509,-0.65019,-0.66389,-4.49365,830.05682,824.99804,0.56875,13.61201,0.66389,-0.10497,6.52204,9.72738,9.6224,,,,,,,,,,,,,,,,,,,,,,,,,
46.15,-1.57079,-1.57079,0.47949,-0.07114,-0.21328,0.0491,-0.19312,-0.08243,2.01787,0.04884,0.01869,1.93748,0.69554,0.00153,-0.2002,-0.66389,-3.18938,699.2962,824.99804,0.45797,13.61171,0.66389,-0.11065,6.52204,6.94015,6.8295,,,,,,,,,,,,,,,,,,,,,,,,,
46.151,-1.57079,-1.57079,0.47949,-0.07114,-0.21328,0.0491,-0.19312,-0.08243,2.01787,0.04884,0.01869,1.93748,0.69554,0.00153,-0.2002,-0.66389,-3.18938,699.2962,824.99804,0.45797,13.61143,0.66389,-0.11632,6.52204,6.94015,6.82383,,,,,,,,,,,,,,,,,,,,,,,,,
46.152,-1.57079,-1.57079,0.47949,-0.07,-0.21783,0.04581,-0.19312,-0.08243,2.01787,0.04884,0.01869,1.93748,0.69554,0.00153,-0.2002,-0.66389,-3.18397,698.70349,829.57287,0.45749,13.61114,0.66389,-0.12222,6.52204,6.94015,6.81793,,,,,,,,,,,,,,,,,,,,,,,,,
46.15299,-1.57079,-1.57079,0.47949,-0.07,-0.21783,0.04581,-0.19312,-0.08243,2.01787,0.04884,0.01869,1.93748,0.69554,0.00153,-0.2002,-0.66389,-3.18397,698.70349,828.80694,0.45749,13.61086,0.66389,-0.12812,6.52204,6.94015,6.81203,,,,,,,,,,,,,,,,,,,,,,,,,
46.15399,-1.57079,-1.57079,0.47949,-0.06032,-0.21717,0.04131,-0.19312,-0.08243,2.01787,0.04884,0.01869,1.93748,0.69554,0.00153,-0.2002,-0.66389,-3.17842,698.09356,828.80694,0.45699,13.61059,0.66389,-0.13412,6.52204,6.94015,6.80603,,,,,,,,,,,,,,,,,,,,,,,,,
46.15499,-1.57079,-1.57079,0.47949,-0.06032,-0.21717,0.04131,-0.19312,-0.08243,2.01787,0.04884,0.01869,1.93748,0.69554,0.00153,-0.2002,-0.66389,-3.17842,698.09356,828.80694,0.45699,13.61032,0.66389,-0.14011,6.52204,6.94015,6.80003,,,,,,,,,,,,,,,,,,,,,,,,,
46.15599,-1.57079,-1.57079,0.47949,-0.05647,-0.21267,0.03793,-0.19312,-0.08243,2.01787,0.04884,0.01869,1.93748,0.69554,0.00153,-0.2002,-0.66389,-3.17282,697.47882,828.80694,0.45649,13.61006,0.66389,-0.1461,6.52204,6.94015,6.79405,,,,,,,,,,,,,,,,,,,,,,,,,
46.157,-1.57079,-1.57079,0.47949,-0.05647,-0.21267,0.03793,-0.19312,-0.08243,2.01787,0.04884,0.01869,1.93748,0.69554,0.00153,-0.2002,-0.66389,-3.17282,697.47882,826.51739,0.45649,13.6098,0.66389,-0.15208,6.52204,6.94015,6.78807,,,,,,,,,,,,,,,,,,,,,,,,,
46.158,-1.57079,-1.57079,0.47949,-0.0613,-0.21229,0.03467,-0.19312,-0.08243,2.01787,0.04884,0.01869,1.93748,0.69554,0.00153,-0.2002,-0.66389,-3.1672,696.86077,827.27917,0.45598,13.60954,0.66389,-0.15813,6.52204,6.94015,6.78202,,,,,,,,,,,,,,,,,,,,,,,,,
46.159,-1.57079,-1.57079,0.47949,-0.0613,-0.21229,0.03467,-0.19312,-0.08243,2.01787,0.04884,0.01869,1.93748,0.69554,0.00153,-0.2002,-0.66389,-3.1672,696.86077,826.51739,0.45598,13.60929,0.66389,-0.16419,6.52204,6.94015,6.77596,,,,,,,,,,,,,,,,,,,,,,,,,
46.15999,0.22513,-0.08612,0.40475,-0.05918,-0.21533,0.02989,-0.08721,-0.04479,2.01787,0.04861,0.01651,1.93784,0.69554,0.00153,-0.2002,-0.66389,-3.10562,690.05322,826.51739,0.45023,13.60904,0.66389,-0.17057,6.52204,6.82074,6.65016,,,,,,,,,,,,,,,,,,,,,,,,,
46.16099,0.22513,-0.08612,0.40475,-0.05918,-0.21533,0.02989,-0.08721,-0.04479,2.01787,0.04861,0.01651,1.93784,0.69554,0.00153,-0.2002,-0.66389,-3.10562,690.05322,826.51739,0.45023,13.6088,0.66389,-0.17696,6.52204,6.82074,6.64377,,,,,,,,,,,,,,,,,,,,,,,,,
46.16199,0.22513,-0.08612,0.40475,-0.04758,-0.21566,0.02659,-0.08721,-0.04479,2.01787,0.04861,0.01651,1.93784,0.69554,0.00153,-0.2002,-0.66389,-3.09968,689.39324,825.75701,0.44969,13.60855,0.66389,-0.18329,6.52204,6.82074,6.63744,,,,,,,,,,,,,,,,,,,,,,,,,
46.16299,0.22513,-0.08612,0.40475,-0.04758,-0.21566,0.02659,-0.08721,-0.04479,2.01787,0.04861,0.01651,1.93784,0.69554,0.00153,-0.2002,-0.66389,-3.09968,689.39324,825.75701,0.44969,13.60832,0.66389,-0.18961,6.52204,6.82074,6.63112,,,,,,,,,,,,,,,,,,,,,,,,,
46.164,0.22513,-0.08612,0.40475,-0.04083,-0.21502,0.02986,-0.08721,-0.04479,2.01787,0.04861,0.01651,1.93784,0.69554,0.00153,-0.2002,-0.66389,-3.09383,688.74243,824.99804,0.44915,13.60808,0.66389,-0.19582,6.52204,6.82074,6.62492,,,,,,,,,,,,,,,,,,,,,,,,,
46.165,0.22513,-0.08612,0.40475,-0.04083,-0.21502,0.02986,-0.08721,-0.04479,2.01787,0.04861,0.01651,1.93784,0.69554,0.00153,-0.2002,-0.66389,-3.09383,688.74243,824.24047,0.44915,13.60784,0.66389,-0.20202,6.52204,6.82074,6.61871,,,,,,,,,,,,,,,,,,,,,,,,,
46.166,0.22513,-0.08612,0.40475,-0.03964,-0.21774,0.0417,-0.08721,-0.04479,2.01787,0.04861,0.01651,1.93784,0.69554,0.00153,-0.2002,-0.66389,-3.08804,688.09686,818.97613,0.44862,13.60761,0.66389,-0.20823,6.52204,6.82074,6.6125,,,,,,,,,,,,,,,,,,,,,,,,,
46.16699,0.22513,-0.08612,0.40475,-0.03964,-0.21774,0.0417,-0.08721,-0.04479,2.01787,0.04861,0.01651,1.93784,0.69554,0.00153,-0.2002,-0.66389,-3.08804,688.09686,815.9981,0.44862,13.60738,0.66389,-0.21444,6.52204,6.82074,6.60629,,,,,,,,,,,,,,,,,,,,,,,,,
46.16799,0.22513,-0.08612,0.40475,-0.03153,-0.21936,0.06259,-0.08721,-0.04479,2.01787,0.04861,0.01651,1.93784,0.69554,0.00153,-0.2002,-0.66389,-3.08225,687.45178,818.97613,0.44809,13.60716,0.66389,-0.22062,6.52204,6.82074,6.60011,,,,,,,,,,,,,,,,,,,,,,,,,
46.16899,0.22513,-0.08612,0.40475,-0.03153,-0.21936,0.06259,-0.08721,-0.04479,2.01787,0.04861,0.01651,1.93784,0.69554,0.00153,-0.2002,-0.66389,-3.08225,687.45178,815.9981,0.44809,13.60694,0.6638,-0.2268,6.52204,6.82074,6.59393,,,,,,,,,,,,,,,,,,,,,,,,,
46.16999,0.86942,0.23135,0.38753,-0.01986,-0.21536,0.09407,-0.04271,-0.02581,2.01787,0.04858,0.01432,1.9382,0.69539,0.00408,-0.2002,-0.6638,-3.06523,685.5512,807.91894,0.44649,13.60673,0.6638,-0.23279,6.52204,6.79646,6.56367,,,,,,,,,,,,,,,,,,,,,,,,,
46.171,0.86942,0.23135,0.38753,-0.01986,-0.21536,0.09407,-0.04271,-0.02581,2.01787,0.04858,0.01432,1.9382,0.69539,0.00408,-0.2002,-0.6638,-3.06523,685.5512,807.91894,0.44649,13.60652,0.6638,-0.23877,6.52204,6.79646,6.55769,,,,,,,,,,,,,,,,,,,,,,,,,
46.172,0.86942,0.23135,0.38753,-0.01794,-0.21223,0.13561,-0.04271,-0.02581,2.01787,0.04858,0.01432,1.9382,0.69539,0.00408,-0.2002,-0.6638,-3.05978,684.9411,800.71173,0.44599,13.60632,0.6638,-0.24446,6.52204,6.79646,6.55199,,,,,,,,,,,,,,,,,,,,,,,,,
46.173,0.86942,0.23135,0.38753,-0.01794,-0.21223,0.13561,-0.04271,-0.02581,2.01787,0.04858,0.01432,1.9382,0.69539,0.00408,-0.2002,-0.6638,-3.05978,684.9411,799.9981,0.44599,13.60613,0.6638,-0.25016,6.52204,6.79646,6.54629,,,,,,,,,,,,,,,,,,,,,,,,,
46.17399,0.86942,0.23135,0.38753,-0.01997,-0.21653,0.18357,-0.04271,-0.02581,2.01787,0.04858,0.01432,1.9382,0.69539,0.00408,-0.2002,-0.6638,-3.05452,684.35198,797.15625,0.4455,13.60594,0.6638,-0.25573,6.52204,6.79646,6.54073,,,,,,,,,,,,,,,,,,,,,,,,,
46.17499,0.86942,0.23135,0.38753,-0.01997,-0.21653,0.18357,-0.04271,-0.02581,2.01787,0.04858,0.01432,1.9382,0.69539,0.00408,-0.2002,-0.6638,-3.05452,684.35198,796.44885,0.4455,13.60575,0.6638,-0.2613,6.52204,6.79646,6.53516,,,,,,,,,,,,,,,,,,,,,,,,,
46.17599,0.86942,0.23135,0.38753,-0.01176,-0.22278,0.23731,-0.04271,-0.02581,2.01787,0.04858,0.01432,1.9382,0.69539,0.00408,-0.2002,-0.6638,-3.04937,683.77575,790.13897,0.44502,13.60557,0.6638,-0.26674,6.52204,6.79646,6.52972,,,,,,,,,,,,,,,,,,,,,,,,,
46.17699,0.86942,0.23135,0.38753,-0.01176,-0.22278,0.23731,-0.04271,-0.02581,2.01787,0.04858,0.01432,1.9382,0.69539,0.00408,-0.2002,-0.6638,-3.04937,683.77575,788.75036,0.44502,13.60539,0.6638,-0.27218,6.52204,6.79646,6.52427,,,,,,,,,,,,,,,,,,,,,,,,,
46.178,0.86942,0.23135,0.38753,-0.00074,-0.22427,0.30108,-0.04271,-0.02581,2.01787,0.04858,0.01432,1.9382,0.69539,0.00408,-0.2002,-0.6638,-3.04444,683.22186,788.75036,0.44457,13.60522,0.6638,-0.27731,6.52204,6.79646,6.51914,,,,,,,,,,,,,,,,,,,,,,,,,
46.179,0.86942,0.23135,0.38753,-0.00074,-0.22427,0.30108,-0.04271,-0.02581,2.01787,0.04858,0.01432,1.9382,0.69539,0.00408,-0.2002,-0.6638,-3.04444,683.22186,788.75036,0.44457,13.60505,0.6637,-0.28245,6.52204,6.79646,6.51401,,,,,,,,,,,,,,,,,,,,,,,,,
46.18,0.78626,0.23492,0.37573,-0.00263,-0.22548,0.37676,-0.02334,-0.01678,2.01787,0.04889,0.01202,1.94051,0.69524,0.00735,-0.2002,-0.6637,-3.03715,682.40344,788.75036,0.44388,13.60489,0.6637,-0.28726,6.52204,6.7908,6.50353,,,,,,,,,,,,,,,,,,,,,,,,,
46.18099,0.78626,0.23492,0.37573,-0.00263,-0.22548,0.37676,-0.02334,-0.01678,2.01787,0.04889,0.01202,1.94051,0.69524,0.00735,-0.2002,-0.6637,-3.03715,682.40344,788.75036,0.44388,13.60474,0.6637,-0.29208,6.52204,6.7908,6.49872,,,,,,,,,,,,,,,,,,,,,,,,,
46.18199,0.78626,0.23492,0.37573,-0.01004,-0.2327,0.46043,-0.02334,-0.01678,2.01787,0.04889,0.01202,1.94051,0.69524,0.00735,-0.2002,-0.6637,-3.03274,681.90771,788.75036,0.44347,13.60459,0.6637,-0.29671,6.52204,6.7908,6.49409,,,,,,,,,,,,,,,,,,,,,,,,,
46.18299,0.78626,0.23492,0.37573,-0.01004,-0.2327,0.46043,-0.02334,-0.01678,2.01787,0.04889,0.01202,1.94051,0.69524,0.00735,-0.2002,-0.6637,-3.03274,681.90771,773.12475,0.44347,13.60445,0.6637,-0.30134,6.52204,6.7908,6.48946,,,,,,,,,,,,,,,,,,,,,,,,,
46.18399,0.78626,0.23492,0.37573,-0.00599,-0.24126,0.54897,-0.02334,-0.01678,2.01787,0.04889,0.01202,1.94051,0.69524,0.00735,-0.2002,-0.6637,-3.0285,681.43109,773.12475,0.44308,13.60432,0.6637,-0.30578,6.52204,6.7908,6.48501,,,,,,,,,,,,,,,,,,,,,,,,,
46.185,0.78626,0.23492,0.37573,-0.00599,-0.24126,0.54897,-0.02334,-0.01678,2.01787,0.04889,0.01202,1.94051,0.69524,0.00735,-0.2002,-0.6637,-3.0285,681.43109,773.12475,0.44308,13.60419,0.6637,-0.31023,6.52204,6.7908,6.48057,,,,,,,,,,,,,,,,,,,,,,,,,
46.186,0.78626,0.23492,0.37573,0.00362,-0.24399,0.64365,-0.02334,-0.01678,2.01787,0.04889,0.01202,1.94051,0.69524,0.00735,-0.2002,-0.6637,-3.0245,680.98156,773.12475,0.4427,13.60407,0.6637,-0.31434,6.52204,6.7908,6.47646,,,,,,,,,,,,,,,,,,,,,,,,,
46.187,0.78626,0.23492,0.37573,0.00362,-0.24399,0.64365,-0.02334,-0.01678,2.01787,0.04889,0.01202,1.94051,0.69524,0.00735,-0.2002,-0.6637,-3.0245,680.98156,769.14984,0.4427,13.60395,0.6637,-0.31845,6.52204,6.7908,6.47235,,,,,,,,,,,,,,,,,,,,,,,,,
46.18799,0.78626,0.23492,0.37573,0.00231,-0.24427,0.74407,-0.02334,-0.01678,2.01787,0.04889,0.01202,1.94051,0.69524,0.00735,-0.2002,-0.6637,-3.02083,680.56744,767.83392,0.44236,13.60385,0.6637,-0.32221,6.52204,6.7908,6.46858,,,,,,,,,,,,,,,,,,,,,,,,,
46.18899,0.78626,0.23492,0.37573,0.00231,-0.24427,0.74407,-0.02334,-0.01678,2.01787,0.04889,0.01202,1.94051,0.69524,0.00735,-0.2002,-0.6637,-3.02083,680.56744,767.17767,0.44236,13.60375,0.6637,-0.32598,6.52204,6.7908,6.46482,,,,,,,,,,,,,,,,,,,,,,,,,
46.18999,0.68071,0.14453,0.34702,-0.00418,-0.24893,0.84554,-0.0119,-0.01494,2.01787,0.04926,0.00926,1.94712,0.69524,0.00735,-0.2002,-0.6637,-3.01665,680.09674,762.61505,0.44197,13.60366,0.6637,-0.32959,6.52204,6.78923,6.45964,,,,,,,,,,,,,,,,,,,,,,,,,
46.191,0.68071,0.14453,0.34702,-0.00418,-0.24893,0.84554,-0.0119,-0.01494,2.01787,0.04926,0.00926,1.94712,0.69524,0.00735,-0.2002,-0.6637,-3.01665,680.09674,761.96765,0.44197,13.60357,0.6637,-0.3332,6.52204,6.78923,6.45603,,,,,,,,,,,,,,,,,,,,,,,,,
46.192,0.68071,0.14453,0.34702,0.00084,-0.25526,0.94574,-0.0119,-0.01494,2.01787,0.04926,0.00926,1.94712,0.69524,0.00735,-0.2002,-0.6637,-3.01333,679.72253,761.96765,0.44166,13.6035,0.6637,-0.3367,6.52204,6.78923,6.45253,,,,,,,,,,,,,,,,,,,,,,,,,
46.193,0.68071,0.14453,0.34702,0.00084,-0.25526,0.94574,-0.0119,-0.01494,2.01787,0.04926,0.00926,1.94712,0.69524,0.00735,-0.2002,-0.6637,-3.01333,679.72253,761.32135,0.44166,13.60343,0.6637,-0.34019,6.52204,6.78923,6.44904,,,,,,,,,,,,,,,,,,,,,,,,,
46.194,0.68071,0.14453,0.34702,0.01159,-0.25702,1.0478,-0.0119,-0.01494,2.01787,0.04926,0.00926,1.94712,0.69524,0.00735,-0.2002,-0.6637,-3.0102,679.36889,761.32135,0.44136,13.60337,0.6637,-0.34341,6.52204,6.78923,6.44582,,,,,,,,,,,,,,,,,,,,,,,,,
46.19499,0.68071,0.14453,0.34702,0.01159,-0.25702,1.0478,-0.0119,-0.01494,2.01787,0.04926,0.00926,1.94712,0.69524,0.00735,-0.2002,-0.6637,-3.0102,679.36889,760.6762,0.44136,13.60332,0.6637,-0.34663,6.52204,6.78923,6.4426,,,,,,,,,,,,,,,,,,,,,,,,,
46.19599,0.68071,0.14453,0.34702,0.00978,-0.25746,1.15328,-0.0119,-0.01494,2.01787,0.04926,0.00926,1.94712,0.69524,0.00735,-0.2002,-0.6637,-3.00734,679.04681,759.38909,0.44109,13.60328,0.6637,-0.34952,6.52204,6.78923,6.43971,,,,,,,,,,,,,,,,,,,,,,,,,
46.19699,0.68071,0.14453,0.34702,0.00978,-0.25746,1.15328,-0.0119,-0.01494,2.01787,0.04926,0.00926,1.94712,0.69524,0.00735,-0.2002,-0.6637,-3.00734,679.04681,753.01837,0.44109,13.60325,0.6637,-0.35241,6.52204,6.78923,6.43682,,,,,,,,,,,,,,,,,,,,,,,,,
46.198,0.68071,0.14453,0.34702,0.00018,-0.26375,1.25806,-0.0119,-0.01494,2.01787,0.04926,0.00926,1.94712,0.69524,0.00735,-0.2002,-0.6637,-3.00469,678.74792,753.01837,0.44084,13.60324,0.6637,-0.35519,6.52204,6.78923,6.43404,,,,,,,,,,,,,,,,,,,,,,,,,
46.199,0.68071,0.14453,0.34702,0.00018,-0.26375,1.25806,-0.0119,-0.01494,2.01787,0.04926,0.00926,1.94712,0.69524,0.00735,-0.2002,-0.6637,-3.00469,678.74792,753.01837,0.44084,13.60323,0.6636,-0.35796,6.52204,6.78923,6.43127,,,,,,,,,,,,,,,,,,,,,,,,,
46.2,0.42345,0.20695,0.28372,0.00332,-0.27228,1.35896,-0.01431,-0.00915,2.01787,0.04967,0.00603,1.95913,0.6951,0.00336,-0.2002,-0.6636,-3.00198,678.4414,749.247,0.44058,13.60323,0.6636,-0.36074,6.52205,6.78897,6.42823,,,,,,,,,,,,,,,,,,,,,,,,,
46.201,0.42345,0.20695,0.28372,0.00332,-0.27228,1.35896,-0.01431,-0.00915,2.01787,0.04967,0.00603,1.95913,0.6951,0.00336,-0.2002,-0.6636,-3.00198,678.4414,749.247,0.44058,13.60324,0.6636,-0.36351,6.52205,6.78897,6.42546,,,,,,,,,,,,,,,,,,,,,,,,,
46.20199,0.42345,0.20695,0.28372,0.01818,-0.27324,1.45838,-0.01431,-0.00915,2.01787,0.04967,0.00603,1.95913,0.6951,0.00336,-0.2002,-0.6636,-2.99947,678.15753,747.37542,0.44034,13.60327,0.6636,-0.36611,6.52205,6.78897,6.42286,,,,,,,,,,,,,,,,,,,,,,,,,
46.20299,0.42345,0.20695,0.28372,0.01818,-0.27324,1.45838,-0.01431,-0.00915,2.01787,0.04967,0.00603,1.95913,0.6951,0.00336,-0.2002,-0.6636,-2.99947,678.15753,747.37542,0.44034,13.6033,0.6636,-0.36872,6.52205,6.78897,6.42025,,,,,,,,,,,,,,,,,,,,,,,,,
46.20399,0.42345,0.20695,0.28372,0.02415,-0.26825,1.55809,-0.01431,-0.00915,2.01787,0.04967,0.00603,1.95913,0.6951,0.00336,-0.2002,-0.6636,-2.99718,677.89831,747.37542,0.44011,13.60335,0.6636,-0.37102,6.52205,6.78897,6.41795,,,,,,,,,,,,,,,,,,,,,,,,,
46.205,0.42345,0.20695,0.28372,0.02415,-0.26825,1.55809,-0.01431,-0.00915,2.01787,0.04967,0.00603,1.95913,0.6951,0.00336,-0.2002,-0.6636,-2.99718,677.89831,740.59228,0.44011,13.60341,0.6636,-0.37333,6.52205,6.78897,6.41564,,,,,,,,,,,,,,,,,,,,,,,,,
46.206,0.42345,0.20695,0.28372,0.01876,-0.26896,1.65403,-0.01431,-0.00915,2.01787,0.04967,0.00603,1.95913,0.6951,0.00336,-0.2002,-0.6636,-2.99508,677.66113,740.59228,0.43991,13.60349,0.6636,-0.37551,6.52205,6.78897,6.41346,,,,,,,,,,,,,,,,,,,,,,,,,
46.207,0.42345,0.20695,0.28372,0.01876,-0.26896,1.65403,-0.01431,-0.00915,2.01787,0.04967,0.00603,1.95913,0.6951,0.00336,-0.2002,-0.6636,-2.99508,677.66113,740.59228,0.43991,13.60357,0.6636,-0.3777,6.52205,6.78897,6.41127,,,,,,,,,,,,,,,,,,,,,,,,,
46.208,0.42345,0.20695,0.28372,0.02167,-0.27737,1.74273,-0.01431,-0.00915,2.01787,0.04967,0.00603,1.95913,0.6951,0.00336,-0.2002,-0.6636,-2.99299,677.42388,738.76373,0.4397,13.60367,0.6636,-0.38,6.52205,6.78897,6.40897,,,,,,,,,,,,,,,,,,,,,,,,,
46.20899,0.42345,0.20695,0.28372,0.02167,-0.27737,1.74273,-0.01431,-0.00915,2.01787,0.04967,0.00603,1.95913,0.6951,0.00336,-0.2002,-0.6636,-2.99299,677.42388,738.76373,0.4397,13.60378,0.6635,-0.3823,6.52205,6.78897,6.40667,,,,,,,,,,,,,,,,,,,,,,,,,
46.20999,0.28738,0.27559,0.1946,0.03722,-0.28248,1.82776,-0.01855,-0.00271,2.01787,0.05018,0.00235,1.97623,0.69495,0.00521,-0.2002,-0.6635,-2.99092,677.18994,738.15612,0.4395,13.60391,0.6635,-0.38464,6.52205,6.78919,6.40454,,,,,,,,,,,,,,,,,,,,,,,,,
46.21099,0.28738,0.27559,0.1946,0.03722,-0.28248,1.82776,-0.01855,-0.00271,2.01787,0.05018,0.00235,1.97623,0.69495,0.00521,-0.2002,-0.6635,-2.99092,677.18994,738.15612,0.4395,13.60404,0.6635,-0.38698,6.52205,6.78919,6.4022,,,,,,,,,,,,,,,,,,,,,,,,,
46.212,0.28738,0.27559,0.1946,0.04424,-0.27928,1.91354,-0.01855,-0.00271,2.01787,0.05018,0.00235,1.97623,0.69495,0.00521,-0.2002,-0.6635,-2.98882,676.9522,738.15612,0.43928,13.60419,0.6635,-0.38914,6.52205,6.78919,6.40005,,,,,,,,,,,,,,,,,,,,,,,,,
46.213,0.28738,0.27559,0.1946,0.04424,-0.27928,1.91354,-0.01855,-0.00271,2.01787,0.05018,0.00235,1.97623,0.69495,0.00521,-0.2002,-0.6635,-2.98882,676.9522,737.54962,0.43928,13.60436,0.6635,-0.3913,6.52205,6.78919,6.39789,,,,,,,,,,,,,,,,,,,,,,,,,
46.214,0.28738,0.27559,0.1946,0.03332,-0.27674,1.99681,-0.01855,-0.00271,2.01787,0.05018,0.00235,1.97623,0.69495,0.00521,-0.2002,-0.6635,-2.98688,676.73223,737.54962,0.43909,13.60454,0.6635,-0.3933,6.52205,6.78919,6.39589,,,,,,,,,,,,,,,,,,,,,,,,,
46.215,0.28738,0.27559,0.1946,0.03332,-0.27674,1.99681,-0.01855,-0.00271,2.01787,0.05018,0.00235,1.97623,0.69495,0.00521,-0.2002,-0.6635,-2.98688,676.73223,737.54962,0.43909,13.60473,0.6635,-0.3953,6.52205,6.78919,6.39389,,,,,,,,,,,,,,,,,,,,,,,,,
46.21599,0.28738,0.27559,0.1946,0.02502,-0.28133,2.07133,-0.01855,-0.00271,2.01787,0.05018,0.00235,1.97623,0.69495,0.00521,-0.2002,-0.6635,-2.985,676.51947,737.54962,0.43889,13.60494,0.6635,-0.39732,6.52205,6.78919,6.39187,,,,,,,,,,,,,,,,,,,,,,,,,
46.21699,0.28738,0.27559,0.1946,0.02502,-0.28133,2.07133,-0.01855,-0.00271,2.01787,0.05018,0.00235,1.97623,0.69495,0.00521,-0.2002,-0.6635,-2.985,676.51947,730.94287,0.43889,13.60517,0.6635,-0.39934,6.52205,6.78919,6.38985,,,,,,,,,,,,,,,,,,,,,,,,,
46.21799,0.28738,0.27559,0.1946,0.035,-0.28549,2.13775,-0.01855,-0.00271,2.01787,0.05018,0.00235,1.97623,0.69495,0.00521,-0.2002,-0.6635,-2.98312,676.30682,720.38354,0.4387,13.60541,0.6635,-0.40134,6.52205,6.78919,6.38785,,,,,,,,,,,,,,,,,,,,,,,,,
46.219,0.28738,0.27559,0.1946,0.035,-0.28549,2.13775,-0.01855,-0.00271,2.01787,0.05018,0.00235,1.97623,0.69495,0.00521,-0.2002,-0.6635,-2.98312,676.30682,720.38354,0.4387,13.60566,0.6635,-0.40333,6.52205,6.78919,6.38585,,,,,,,,,,,,,,,,,,,,,,,,,
46.22,0.42073,0.13684,0.09564,0.04723,-0.28144,2.20158,-0.01228,-0.00678,2.01787,0.05082,-0.00161,1.99737,0.69495,0.00521,-0.2002,-0.6635,-2.98112,676.08032,720.38354,0.43849,13.60594,0.6635,-0.40509,6.52205,6.78866,6.38357,,,,,,,,,,,,,,,,,,,,,,,,,
46.221,0.42073,0.13684,0.09564,0.04723,-0.28144,2.20158,-0.01228,-0.00678,2.01787,0.05082,-0.00161,1.99737,0.69495,0.00521,-0.2002,-0.6635,-2.98112,676.08032,720.38354,0.43849,13.60623,0.6635,-0.40684,6.52205,6.78866,6.38182,,,,,,,,,,,,,,,,,,,,,,,,,
46.222,0.42073,0.13684,0.09564,0.04198,-0.27572,2.26316,-0.01228,-0.00678,2.01787,0.05082,-0.00161,1.99737,0.69495,0.00521,-0.2002,-0.6635,-2.9796,675.90747,720.38354,0.43832,13.60653,0.6635,-0.40835,6.52205,6.78866,6.38031,,,,,,,,,,,,,,,,,,,,,,,,,
46.22299,0.42073,0.13684,0.09564,0.04198,-0.27572,2.26316,-0.01228,-0.00678,2.01787,0.05082,-0.00161,1.99737,0.69495,0.00521,-0.2002,-0.6635,-2.9796,675.90747,718.0783,0.43832,13.60685,0.6635,-0.40986,6.52205,6.78866,6.3788,,,,,,,,,,,,,,,,,,,,,,,,,
46.22399,0.42073,0.13684,0.09564,0.02967,-0.27806,2.31784,-0.01228,-0.00678,2.01787,0.05082,-0.00161,1.99737,0.69495,0.00521,-0.2002,-0.6635,-2.97818,675.74658,718.0783,0.43817,13.60719,0.6635,-0.41139,6.52205,6.78866,6.37727,,,,,,,,,,,,,,,,,,,,,,,,,
46.22499,0.42073,0.13684,0.09564,0.02967,-0.27806,2.31784,-0.01228,-0.00678,2.01787,0.05082,-0.00161,1.99737,0.69495,0.00521,-0.2002,-0.6635,-2.97818,675.74658,720.38354,0.43817,13.60755,0.6635,-0.41292,6.52205,6.78866,6.37574,,,,,,,,,,,,,,,,,,,,,,,,,
46.226,0.42073,0.13684,0.09564,0.03222,-0.28365,2.36539,-0.01228,-0.00678,2.01787,0.05082,-0.00161,1.99737,0.69495,0.00521,-0.2002,-0.6635,-2.97668,675.57666,720.38354,0.438,13.60792,0.6635,-0.4146,6.52205,6.78866,6.37406,,,,,,,,,,,,,,,,,,,,,,,,,
46.227,0.42073,0.13684,0.09564,0.03222,-0.28365,2.36539,-0.01228,-0.00678,2.01787,0.05082,-0.00161,1.99737,0.69495,0.00521,-0.2002,-0.6635,-2.97668,675.57666,718.0783,0.438,13.60831,0.6635,-0.41627,6.52205,6.78866,6.37239,,,,,,,,,,,,,,,,,,,,,,,,,
46.228,0.42073,0.13684,0.09564,0.04465,-0.28051,2.41115,-0.01228,-0.00678,2.01787,0.05082,-0.00161,1.99737,0.69495,0.00521,-0.2002,-0.6635,-2.97515,675.40197,717.50433,0.43782,13.60872,0.6635,-0.41789,6.52205,6.78866,6.37077,,,,,,,,,,,,,,,,,,,,,,,,,
46.229,0.42073,0.13684,0.09564,0.04465,-0.28051,2.41115,-0.01228,-0.00678,2.01787,0.05082,-0.00161,1.99737,0.69495,0.00521,-0.2002,-0.6635,-2.97515,675.40197,717.50433,0.43782,13.60914,0.6631,-0.41951,6.52205,6.78866,6.36915,,,,,,,,,,,,,,,,,,,,,,,,,
46.22999,-0.09171,0.42797,-0.0391,0.04363,-0.26989,2.4564,-0.03642,0.00713,2.01787,0.05133,-0.00572,2.02129,0.69435,0.02143,-0.2002,-0.6631,-2.97562,675.45611,718.65319,0.43784,13.60958,0.6631,-0.42088,6.52205,6.79267,6.37179,,,,,,,,,,,,,,,,,,,,,,,,,
46.23099,-0.09171,0.42797,-0.0391,0.04363,-0.26989,2.4564,-0.03642,0.00713,2.01787,0.05133,-0.00572,2.02129,0.69435,0.02143,-0.2002,-0.6631,-2.97562,675.45611,718.65319,0.43784,13.61004,0.6631,-0.42224,6.52205,6.79267,6.37042,,,,,,,,,,,,,,,,,,,,,,,,,
46.23199,-0.09171,0.42797,-0.0391,0.02778,-0.2644,2.49546,-0.03642,0.00713,2.01787,0.05133,-0.00572,2.02129,0.69435,0.02143,-0.2002,-0.6631,-2.9744,675.31719,718.65319,0.43769,13.61052,0.6631,-0.4235,6.52205,6.79267,6.36917,,,,,,,,,,,,,,,,,,,,,,,,,
46.233,-0.09171,0.42797,-0.0391,0.02778,-0.2644,2.49546,-0.03642,0.00713,2.01787,0.05133,-0.00572,2.02129,0.69435,0.02143,-0.2002,-0.6631,-2.9744,675.31719,718.65319,0.43769,13.61102,0.6631,-0.42475,6.52205,6.79267,6.36791,,,,,,,,,,,,,,,,,,,,,,,,,
46.234,-0.09171,0.42797,-0.0391,0.0203,-0.2668,2.52527,-0.03642,0.00713,2.01787,0.05133,-0.00572,2.02129,0.69435,0.02143,-0.2002,-0.6631,-2.97318,675.17834,718.65319,0.43754,13.61153,0.6631,-0.42612,6.52205,6.79267,6.36655,,,,,,,,,,,,,,,,,,,,,,,,,
46.235,-0.09171,0.42797,-0.0391,0.0203,-0.2668,2.52527,-0.03642,0.00713,2.01787,0.05133,-0.00572,2.02129,0.69435,0.02143,-0.2002,-0.6631,-2.97318,675.17834,718.65319,0.43754,13.61207,0.6631,-0.42748,6.52205,6.79267,6.36519,,,,,,,,,,,,,,,,,,,,,,,,,
46.236,-0.09171,0.42797,-0.0391,0.02948,-0.26542,2.55106,-0.03642,0.00713,2.01787,0.05133,-0.00572,2.02129,0.69435,0.02143,-0.2002,-0.6631,-2.97188,675.03106,718.65319,0.43738,13.61262,0.6631,-0.42889,6.52205,6.79267,6.36377,,,,,,,,,,,,,,,,,,,,,,,,,
46.23699,-0.09171,0.42797,-0.0391,0.02948,-0.26542,2.55106,-0.03642,0.00713,2.01787,0.05133,-0.00572,2.02129,0.69435,0.02143,-0.2002,-0.6631,-2.97188,675.03106,715.21746,0.43738,13.61319,0.6631,-0.43031,6.52205,6.79267,6.36236,,,,,,,,,,,,,,,,,,,,,,,,,
46.23799,-0.09171,0.42797,-0.0391,0.03464,-0.25389,2.57813,-0.03642,0.00713,2.01787,0.05133,-0.00572,2.02129,0.69435,0.02143,-0.2002,-0.6631,-2.97065,674.89086,715.21746,0.43723,13.61379,0.6631,-0.43154,6.52205,6.79267,6.36113,,,,,,,,,,,,,,,,,,,,,,,,,
46.23899,-0.09171,0.42797,-0.0391,0.03464,-0.25389,2.57813,-0.03642,0.00713,2.01787,0.05133,-0.00572,2.02129,0.69435,0.02143,-0.2002,-0.6631,-2.97065,674.89086,715.21746,0.43723,13.61441,0.6631,-0.43277,6.52205,6.79267,6.3599,,,,,,,,,,,,,,,,,,,,,,,,,
46.24,0.32715,0.1913,-0.15505,0.02102,-0.24176,2.60349,-0.02417,-0.0001,2.01787,0.0516,-0.00973,2.04686,0.69435,0.02143,-0.2002,-0.6631,-2.96832,674.6267,715.21746,0.43696,13.61504,0.6631,-0.43382,6.52205,6.78998,6.35615,,,,,,,,,,,,,,,,,,,,,,,,,
46.241,0.32715,0.1913,-0.15505,0.02102,-0.24176,2.60349,-0.02417,-0.0001,2.01787,0.0516,-0.00973,2.04686,0.69435,0.02143,-0.2002,-0.6631,-2.96832,674.6267,715.21746,0.43696,13.6157,0.6631,-0.43488,6.52205,6.78998,6.3551,,,,,,,,,,,,,,,,,,,,,,,,,
46.242,0.32715,0.1913,-0.15505,0.00477,-0.23842,2.62152,-0.02417,-0.0001,2.01787,0.0516,-0.00973,2.04686,0.69435,0.02143,-0.2002,-0.6631,-2.96731,674.51141,715.21746,0.43682,13.61638,0.6631,-0.43599,6.52205,6.78998,6.35398,,,,,,,,,,,,,,,,,,,,,,,,,
46.243,0.32715,0.1913,-0.15505,0.00477,-0.23842,2.62152,-0.02417,-0.0001,2.01787,0.0516,-0.00973,2.04686,0.69435,0.02143,-0.2002,-0.6631,-2.96731,674.51141,715.21746,0.43682,13.61708,0.6631,-0.43711,6.52205,6.78998,6.35286,,,,,,,,,,,,,,,,,,,,,,,,,
46.24399,0.32715,0.1913,-0.15505,0.00579,-0.23746,2.63383,-0.02417,-0.0001,2.01787,0.0516,-0.00973,2.04686,0.69435,0.02143,-0.2002,-0.6631,-2.9662,674.3858,714.07946,0.43667,13.6178,0.6631,-0.43836,6.52205,6.78998,6.35161,,,,,,,,,,,,,,,,,,,,,,,,,
46.24499,0.32715,0.1913,-0.15505,0.00579,-0.23746,2.63383,-0.02417,-0.0001,2.01787,0.0516,-0.00973,2.04686,0.69435,0.02143,-0.2002,-0.6631,-2.9662,674.3858,712.94506,0.43667,13.61854,0.6631,-0.43961,6.52205,6.78998,6.35037,,,,,,,,,,,,,,,,,,,,,,,,,
46.24599,0.32715,0.1913,-0.15505,0.01424,-0.2281,2.6467,-0.02417,-0.0001,2.01787,0.0516,-0.00973,2.04686,0.69435,0.02143,-0.2002,-0.6631,-2.96508,674.25885,712.94506,0.43652,13.6193,0.6631,-0.44075,6.52205,6.78998,6.34922,,,,,,,,,,,,,,,,,,,,,,,,,
46.247,0.32715,0.1913,-0.15505,0.01424,-0.2281,2.6467,-0.02417,-0.0001,2.01787,0.0516,-0.00973,2.04686,0.69435,0.02143,-0.2002,-0.6631,-2.96508,674.25885,712.94506,0.43652,13.62008,0.6631,-0.44189,6.52205,6.78998,6.34808,,,,,,,,,,,,,,,,,,,,,,,,,
46.248,0.32715,0.1913,-0.15505,0.00751,-0.21383,2.66047,-0.02417,-0.0001,2.01787,0.0516,-0.00973,2.04686,0.69435,0.02143,-0.2002,-0.6631,-2.96414,674.15112,712.94506,0.43637,13.62088,0.6631,-0.44278,6.52205,6.78998,6.34719,,,,,,,,,,,,,,,,,,,,,,,,,
46.249,0.32715,0.1913,-0.15505,0.00751,-0.21383,2.66047,-0.02417,-0.0001,2.01787,0.0516,-0.00973,2.04686,0.69435,0.02143,-0.2002,-0.6631,-2.96414,674.15112,711.81433,0.43637,13.62171,0.66219,-0.44367,6.52205,6.78998,6.34631,,,,,,,,,,,,,,,,,,,,,,,,,
46.25,-0.03744,0.45705,-0.30079,-0.01108,-0.2065,2.66899,-0.04108,0.01188,2.01787,0.05144,-0.01342,2.07325,0.69299,0.04424,-0.2002,-0.66219,-3.00307,678.56341,710.12493,0.44006,13.62256,0.66219,-0.4443,6.52206,6.87487,6.43056,,,,,,,,,,,,,,,,,,,,,,,,,
46.25099,-0.03744,0.45705,-0.30079,-0.01108,-0.2065,2.66899,-0.04108,0.01188,2.01787,0.05144,-0.01342,2.07325,0.69299,0.04424,-0.2002,-0.66219,-3.00307,678.56341,710.12493,0.44006,13.62343,0.66219,-0.44494,6.52206,6.87487,6.42992,,,,,,,,,,,,,,,,,,,,,,,,,
46.25199,-0.03744,0.45705,-0.30079,-0.01779,-0.2058,2.66982,-0.04108,0.01188,2.01787,0.05144,-0.01342,2.07325,0.69299,0.04424,-0.2002,-0.66219,-3.00241,678.48907,710.12493,0.43994,13.62432,0.66219,-0.44571,6.52206,6.87487,6.42915,,,,,,,,,,,,,,,,,,,,,,,,,
46.25299,-0.03744,0.45705,-0.30079,-0.01779,-0.2058,2.66982,-0.04108,0.01188,2.01787,0.05144,-0.01342,2.07325,0.69299,0.04424,-0.2002,-0.66219,-3.00241,678.48907,710.12493,0.43994,13.62523,0.66219,-0.44648,6.52206,6.87487,6.42838,,,,,,,,,,,,,,,,,,,,,,,,,
46.254,-0.03744,0.45705,-0.30079,-0.00931,-0.19906,2.66789,-0.04108,0.01188,2.01787,0.05144,-0.01342,2.07325,0.69299,0.04424,-0.2002,-0.66219,-3.00168,678.40631,709.56359,0.43981,13.62617,0.66219,-0.44728,6.52206,6.87487,6.42758,,,,,,,,,,,,,,,,,,,,,,,,,
46.255,-0.03744,0.45705,-0.30079,-0.00931,-0.19906,2.66789,-0.04108,0.01188,2.01787,0.05144,-0.01342,2.07325,0.69299,0.04424,-0.2002,-0.66219,-3.00168,678.40631,704.55096,0.43981,13.62712,0.66219,-0.44808,6.52206,6.87487,6.42678,,,,,,,,,,,,,,,,,,,,,,,,,
46.256,-0.03744,0.45705,-0.30079,-0.00927,-0.18216,2.66642,-0.04108,0.01188,2.01787,0.05144,-0.01342,2.07325,0.69299,0.04424,-0.2002,-0.66219,-3.00104,678.3341,709.56359,0.43968,13.62809,0.66219,-0.44865,6.52206,6.87487,6.42621,,,,,,,,,,,,,,,,,,,,,,,,,
46.25699,-0.03744,0.45705,-0.30079,-0.00927,-0.18216,2.66642,-0.04108,0.01188,2.01787,0.05144,-0.01342,2.07325,0.69299,0.04424,-0.2002,-0.66219,-3.00104,678.3341,709.56359,0.43968,13.62909,0.66219,-0.44922,6.52206,6.87487,6.42564,,,,,,,,,,,,,,,,,,,,,,,,,
46.25799,-0.03744,0.45705,-0.30079,-0.02914,-0.16697,2.66091,-0.04108,0.01188,2.01787,0.05144,-0.01342,2.07325,0.69299,0.04424,-0.2002,-0.66219,-3.0006,678.28424,704.55096,0.43958,13.63011,0.66219,-0.4496,6.52206,6.87487,6.42527,,,,,,,,,,,,,,,,,,,,,,,,,
46.25899,-0.03744,0.45705,-0.30079,-0.02914,-0.16697,2.66091,-0.04108,0.01188,2.01787,0.05144,-0.01342,2.07325,0.69299,0.04424,-0.2002,-0.66219,-3.0006,678.28424,704.55096,0.43958,13.63115,0.6607,-0.44997,6.52206,6.87487,6.42489,,,,,,,,,,,,,,,,,,,,,,,,,
46.25999,-0.04523,0.39161,-0.42993,-0.04898,-0.16236,2.64652,-0.04826,0.01271,2.01787,0.05089,-0.01669,2.09977,0.69075,0.08198,-0.2002,-0.6607,-3.0856,687.82391,698.51977,0.44758,13.63221,0.6607,-0.45005,6.52207,7.05734,6.60729,,,,,,,,,,,,,,,,,,,,,,,,,
46.261,-0.04523,0.39161,-0.42993,-0.04898,-0.16236,2.64652,-0.04826,0.01271,2.01787,0.05089,-0.01669,2.09977,0.69075,0.08198,-0.2002,-0.6607,-3.0856,687.82391,698.51977,0.44758,13.63329,0.6607,-0.45014,6.52207,7.05734,6.6072,,,,,,,,,,,,,,,,,,,,,,,,,
46.262,-0.04523,0.39161,-0.42993,-0.05024,-0.15999,2.62679,-0.04826,0.01271,2.01787,0.05089,-0.01669,2.09977,0.69075,0.08198,-0.2002,-0.6607,-3.08545,687.8067,697.97662,0.44749,13.6344,0.6607,-0.45038,6.52207,7.05734,6.60696,,,,,,,,,,,,,,,,,,,,,,,,,
46.263,-0.04523,0.39161,-0.42993,-0.05024,-0.15999,2.62679,-0.04826,0.01271,2.01787,0.05089,-0.01669,2.09977,0.69075,0.08198,-0.2002,-0.6607,-3.08545,687.8067,698.51977,0.44749,13.63552,0.6607,-0.45063,6.52207,7.05734,6.60671,,,,,,,,,,,,,,,,,,,,,,,,,
46.26399,-0.04523,0.39161,-0.42993,-0.04623,-0.14846,2.60874,-0.04826,0.01271,2.01787,0.05089,-0.01669,2.09977,0.69075,0.08198,-0.2002,-0.6607,-3.08525,687.78497,698.51977,0.4474,13.63666,0.6607,-0.4508,6.52207,7.05734,6.60654,,,,,,,,,,,,,,,,,,,,,,,,,
46.26499,-0.04523,0.39161,-0.42993,-0.04623,-0.14846,2.60874,-0.04826,0.01271,2.01787,0.05089,-0.01669,2.09977,0.69075,0.08198,-0.2002,-0.6607,-3.08525,687.78497,697.97662,0.4474,13.63783,0.6607,-0.45098,6.52207,7.05734,6.60636,,,,,,,,,,,,,,,,,,,,,,,,,
46.26599,-0.04523,0.39161,-0.42993,-0.0596,-0.13223,2.5923,-0.04826,0.01271,2.01787,0.05089,-0.01669,2.09977,0.69075,0.08198,-0.2002,-0.6607,-3.08518,687.77703,697.97662,0.44732,13.63901,0.6607,-0.45095,6.52207,7.05734,6.60638,,,,,,,,,,,,,,,,,,,,,,,,,
46.26699,-0.04523,0.39161,-0.42993,-0.0596,-0.13223,2.5923,-0.04826,0.01271,2.01787,0.05089,-0.01669,2.09977,0.69075,0.08198,-0.2002,-0.6607,-3.08518,687.77703,698.51977,0.44732,13.64021,0.6607,-0.45093,6.52207,7.05734,6.60641,,,,,,,,,,,,,,,,,,,,,,,,,
46.268,-0.04523,0.39161,-0.42993,-0.08423,-0.12386,2.57116,-0.04826,0.01271,2.01787,0.05089,-0.01669,2.09977,0.69075,0.08198,-0.2002,-0.6607,-3.08521,687.77996,697.97662,0.44724,13.64144,0.6607,-0.4509,6.52207,7.05734,6.60644,,,,,,,,,,,,,,,,,,,,,,,,,
46.269,-0.04523,0.39161,-0.42993,-0.08423,-0.12386,2.57116,-0.04826,0.01271,2.01787,0.05089,-0.01669,2.09977,0.69075,0.08198,-0.2002,-0.6607,-3.08521,687.77996,696.35211,0.44724,13.64269,0.6607,-0.45086,6.52207,7.05734,6.60648,,,,,,,,,,,,,,,,,,,,,,,,,
46.27,0.31133,0.23317,-0.55041,-0.09496,-0.12282,2.54344,-0.03524,0.00592,2.01787,0.04975,-0.01942,2.12551,0.69075,0.08198,-0.2002,-0.6607,-3.08316,687.55218,696.35211,0.44696,13.64396,0.6607,-0.45099,6.52207,7.05306,6.60207,,,,,,,,,,,,,,,,,,,,,,,,,
46.27099,0.31133,0.23317,-0.55041,-0.09496,-0.12282,2.54344,-0.03524,0.00592,2.01787,0.04975,-0.01942,2.12551,0.69075,0.08198,-0.2002,-0.6607,-3.08316,687.55218,696.35211,0.44696,13.64525,0.6607,-0.45111,6.52207,7.05306,6.60194,,,,,,,,,,,,,,,,,,,,,,,,,
46.27199,0.31133,0.23317,-0.55041,-0.08871,-0.11607,2.51438,-0.03524,0.00592,2.01787,0.04975,-0.01942,2.12551,0.69075,0.08198,-0.2002,-0.6607,-3.08304,687.53845,694.73522,0.44687,13.64655,0.6607,-0.45125,6.52207,7.05306,6.6018,,,,,,,,,,,,,,,,,,,,,,,,,
46.27299,0.31133,0.23317,-0.55041,-0.08871,-0.11607,2.51438,-0.03524,0.00592,2.01787,0.04975,-0.01942,2.12551,0.69075,0.08198,-0.2002,-0.6607,-3.08304,687.53845,694.73522,0.44687,13.64788,0.6607,-0.45139,6.52207,7.05306,6.60167,,,,,,,,,,,,,,,,,,,,,,,,,
46.27399,0.31133,0.23317,-0.55041,-0.08953,-0.09966,2.4869,-0.03524,0.00592,2.01787,0.04975,-0.01942,2.12551,0.69075,0.08198,-0.2002,-0.6607,-3.08302,687.53588,694.73522,0.44678,13.64923,0.6607,-0.4513,6.52207,7.05306,6.60175,,,,,,,,,,,,,,,,,,,,,,,,,
46.275,0.31133,0.23317,-0.55041,-0.08953,-0.09966,2.4869,-0.03524,0.00592,2.01787,0.04975,-0.01942,2.12551,0.69075,0.08198,-0.2002,-0.6607,-3.08302,687.53588,694.73522,0.44678,13.6506,0.6607,-0.45121,6.52207,7.05306,6.60184,,,,,,,,,,,,,,,,,,,,,,,,,
46.276,0.31133,0.23317,-0.55041,-0.10964,-0.08557,2.45626,-0.03524,0.00592,2.01787,0.04975,-0.01942,2.12551,0.69075,0.08198,-0.2002,-0.6607,-3.08317,687.55261,694.73522,0.4467,13.65199,0.6607,-0.45098,6.52207,7.05306,6.60207,,,,,,,,,,,,,,,,,,,,,,,,,
46.277,0.31133,0.23317,-0.55041,-0.10964,-0.08557,2.45626,-0.03524,0.00592,2.01787,0.04975,-0.01942,2.12551,0.69075,0.08198,-0.2002,-0.6607,-3.08317,687.55261,694.73522,0.4467,13.6534,0.6607,-0.45075,6.52207,7.05306,6.60231,,,,,,,,,,,,,,,,,,,,,,,,,
46.27799,0.31133,0.23317,-0.55041,-0.12998,-0.08215,2.41806,-0.03524,0.00592,2.01787,0.04975,-0.01942,2.12551,0.69075,0.08198,-0.2002,-0.6607,-3.08332,687.56933,694.73522,0.44662,13.65483,0.6607,-0.45066,6.52207,7.05306,6.6024,,,,,,,,,,,,,,,,,,,,,,,,,
46.27899,0.31133,0.23317,-0.55041,-0.12998,-0.08215,2.41806,-0.03524,0.00592,2.01787,0.04975,-0.01942,2.12551,0.69075,0.08198,-0.2002,-0.6607,-3.08332,687.56933,694.73522,0.44662,13.65628,0.6593,-0.45057,6.52207,7.05306,6.60248,,,,,,,,,,,,,,,,,,,,,,,,,
46.27999,0.34223,0.30551,-0.67531,-0.13207,-0.08044,2.37648,-0.02997,0.00694,2.01787,0.04809,-0.02161,2.14987,0.68865,0.11347,-0.2002,-0.6593,-3.15352,695.35266,694.73522,0.4531,13.65775,0.6593,-0.45038,6.52208,7.20312,6.75273,,,,,,,,,,,,,,,,,,,,,,,,,
46.28099,0.34223,0.30551,-0.67531,-0.13207,-0.08044,2.37648,-0.02997,0.00694,2.01787,0.04809,-0.02161,2.14987,0.68865,0.11347,-0.2002,-0.6593,-3.15352,695.35266,694.73522,0.4531,13.65924,0.6593,-0.4502,6.52208,7.20312,6.75292,,,,,,,,,,,,,,,,,,,,,,,,,
46.282,0.34223,0.30551,-0.67531,-0.12912,-0.06906,2.33865,-0.02997,0.00694,2.01787,0.04809,-0.02161,2.14987,0.68865,0.11347,-0.2002,-0.6593,-3.15372,695.37469,701.24835,0.45302,13.66076,0.6593,-0.44996,6.52208,7.20312,6.75316,,,,,,,,,,,,,,,,,,,,,,,,,
46.283,0.34223,0.30551,-0.67531,-0.12912,-0.06906,2.33865,-0.02997,0.00694,2.01787,0.04809,-0.02161,2.14987,0.68865,0.11347,-0.2002,-0.6593,-3.15372,695.37469,701.24835,0.45302,13.66229,0.6593,-0.44971,6.52208,7.20312,6.7534,,,,,,,,,,,,,,,,,,,,,,,,,
46.284,0.34223,0.30551,-0.67531,-0.14422,-0.05282,2.30371,-0.02997,0.00694,2.01787,0.04809,-0.02161,2.14987,0.68865,0.11347,-0.2002,-0.6593,-3.15404,695.40997,695.81231,0.45295,13.66384,0.6593,-0.44927,6.52208,7.20312,6.75385,,,,,,,,,,,,,,,,,,,,,,,,,
46.28499,0.34223,0.30551,-0.67531,-0.14422,-0.05282,2.30371,-0.02997,0.00694,2.01787,0.04809,-0.02161,2.14987,0.68865,0.11347,-0.2002,-0.6593,-3.15404,695.40997,695.81231,0.45295,13.66541,0.6593,-0.44883,6.52208,7.20312,6.75429,,,,,,,,,,,,,,,,,,,,,,,,,
46.28599,0.34223,0.30551,-0.67531,-0.17143,-0.04481,2.26443,-0.02997,0.00694,2.01787,0.04809,-0.02161,2.14987,0.68865,0.11347,-0.2002,-0.6593,-3.15447,695.4569,695.81231,0.45288,13.66701,0.6593,-0.44836,6.52208,7.20312,6.75476,,,,,,,,,,,,,,,,,,,,,,,,,
46.28699,0.34223,0.30551,-0.67531,-0.17143,-0.04481,2.26443,-0.02997,0.00694,2.01787,0.04809,-0.02161,2.14987,0.68865,0.11347,-0.2002,-0.6593,-3.15447,695.4569,695.81231,0.45288,13.66862,0.6593,-0.44789,6.52208,7.20312,6.75522,,,,,,,,,,,,,,,,,,,,,,,,,
46.28799,0.34223,0.30551,-0.67531,-0.18503,-0.04492,2.21892,-0.02997,0.00694,2.01787,0.04809,-0.02161,2.14987,0.68865,0.11347,-0.2002,-0.6593,-3.15482,695.49603,695.81231,0.45281,13.67024,0.6593,-0.4476,6.52208,7.20312,6.75552,,,,,,,,,,,,,,,,,,,,,,,,,
46.289,0.34223,0.30551,-0.67531,-0.18503,-0.04492,2.21892,-0.02997,0.00694,2.01787,0.04809,-0.02161,2.14987,0.68865,0.11347,-0.2002,-0.6593,-3.15482,695.49603,699.06378,0.45281,13.67189,0.65679,-0.4473,6.52208,7.20312,6.75581,,,,,,,,,,,,,,,,,,,,,,,,,
46.29,0.20894,0.35322,-0.78887,-0.18198,-0.04007,2.17354,-0.03367,0.00874,2.01787,0.04587,-0.02326,2.17228,0.68489,0.14118,-0.2002,-0.65679,-3.2218,702.83819,699.06378,0.45889,13.67356,0.65679,-0.44677,6.5221,7.34571,6.89893,,,,,,,,,,,,,,,,,,,,,,,,,
46.291,0.20894,0.35322,-0.78887,-0.18198,-0.04007,2.17354,-0.03367,0.00874,2.01787,0.04587,-0.02326,2.17228,0.68489,0.14118,-0.2002,-0.65679,-3.2218,702.83819,700.15435,0.45889,13.67524,0.65679,-0.44624,6.5221,7.34571,6.89946,,,,,,,,,,,,,,,,,,,,,,,,,
46.29199,0.20894,0.35322,-0.78887,-0.18687,-0.02618,2.13222,-0.03367,0.00874,2.01787,0.04587,-0.02326,2.17228,0.68489,0.14118,-0.2002,-0.65679,-3.22239,702.90295,699.06378,0.45883,13.67694,0.65679,-0.4455,6.5221,7.34571,6.9002,,,,,,,,,,,,,,,,,,,,,,,,,
46.29299,0.20894,0.35322,-0.78887,-0.18687,-0.02618,2.13222,-0.03367,0.00874,2.01787,0.04587,-0.02326,2.17228,0.68489,0.14118,-0.2002,-0.65679,-3.22239,702.90295,699.06378,0.45883,13.67866,0.65679,-0.44476,6.5221,7.34571,6.90094,,,,,,,,,,,,,,,,,,,,,,,,,
46.29399,0.20894,0.35322,-0.78887,-0.21112,-0.01575,2.0901,-0.03367,0.00874,2.01787,0.04587,-0.02326,2.17228,0.68489,0.14118,-0.2002,-0.65679,-3.22316,702.98651,699.06378,0.45879,13.6804,0.65679,-0.44386,6.5221,7.34571,6.90184,,,,,,,,,,,,,,,,,,,,,,,,,
46.29499,0.20894,0.35322,-0.78887,-0.21112,-0.01575,2.0901,-0.03367,0.00874,2.01787,0.04587,-0.02326,2.17228,0.68489,0.14118,-0.2002,-0.65679,-3.22316,702.98651,699.06378,0.45879,13.68215,0.65679,-0.44296,6.5221,7.34571,6.90274,,,,,,,,,,,,,,,,,,,,,,,,,
46.296,0.20894,0.35322,-0.78887,-0.23349,-0.0177,2.04192,-0.03367,0.00874,2.01787,0.04587,-0.02326,2.17228,0.68489,0.14118,-0.2002,-0.65679,-3.22393,703.07116,700.15435,0.45874,13.68392,0.65679,-0.4422,6.5221,7.34571,6.9035,,,,,,,,,,,,,,,,,,,,,,,,,
46.297,0.20894,0.35322,-0.78887,-0.23349,-0.0177,2.04192,-0.03367,0.00874,2.01787,0.04587,-0.02326,2.17228,0.68489,0.14118,-0.2002,-0.65679,-3.22393,703.07116,700.15435,0.45874,13.6857,0.65679,-0.44144,6.5221,7.34571,6.90426,,,,,,,,,,,,,,,,,,,,,,,,,
46.298,0.20894,0.35322,-0.78887,-0.23424,-0.0221,1.99111,-0.03367,0.00874,2.01787,0.04587,-0.02326,2.17228,0.68489,0.14118,-0.2002,-0.65679,-3.22455,703.13824,700.15435,0.45868,13.68751,0.65679,-0.44088,6.5221,7.34571,6.90482,,,,,,,,,,,,,,,,,,,,,,,,,
46.29899,0.20894,0.35322,-0.78887,-0.23424,-0.0221,1.99111,-0.03367,0.00874,2.01787,0.04587,-0.02326,2.17228,0.68489,0.14118,-0.2002,-0.65679,-3.22455,703.13824,700.15435,0.45868,13.68933,0.6535,-0.44033,6.5221,7.34571,6.90537,,,,,,,,,,,,,,,,,,,,,,,,,
46.29999,0.30231,0.35336,-0.88891,-0.22749,-0.01564,1.94436,-0.02977,0.00913,2.01787,0.04308,-0.02446,2.19249,0.67994,0.18306,-0.2002,-0.6535,-3.32335,713.82769,700.15435,0.46756,13.69116,0.6535,-0.43929,6.52213,7.55569,7.11639,,,,,,,,,,,,,,,,,,,,,,,,,
46.30099,0.30231,0.35336,-0.88891,-0.22749,-0.01564,1.94436,-0.02977,0.00913,2.01787,0.04308,-0.02446,2.19249,0.67994,0.18306,-0.2002,-0.6535,-3.32335,713.82769,701.79663,0.46756,13.69301,0.6535,-0.43826,6.52213,7.55569,7.11742,,,,,,,,,,,,,,,,,,,,,,,,,
46.30199,0.30231,0.35336,-0.88891,-0.2389,-0.00256,1.90067,-0.02977,0.00913,2.01787,0.04308,-0.02446,2.19249,0.67994,0.18306,-0.2002,-0.6535,-3.32442,713.94287,701.79663,0.46753,13.69487,0.6535,-0.437,6.52213,7.55569,7.11868,,,,,,,,,,,,,,,,,,,,,,,,,
46.303,0.30231,0.35336,-0.88891,-0.2389,-0.00256,1.90067,-0.02977,0.00913,2.01787,0.04308,-0.02446,2.19249,0.67994,0.18306,-0.2002,-0.6535,-3.32442,713.94287,701.79663,0.46753,13.69675,0.6535,-0.43573,6.52213,7.55569,7.11995,,,,,,,,,,,,,,,,,,,,,,,,,
46.304,0.30231,0.35336,-0.88891,-0.26477,0.00261,1.8529,-0.02977,0.00913,2.01787,0.04308,-0.02446,2.19249,0.67994,0.18306,-0.2002,-0.6535,-3.32564,714.07305,700.15435,0.46751,13.69865,0.6535,-0.4344,6.52213,7.55569,7.12128,,,,,,,,,,,,,,,,,,,,,,,,,
46.305,0.30231,0.35336,-0.88891,-0.26477,0.00261,1.8529,-0.02977,0.00913,2.01787,0.04308,-0.02446,2.19249,0.67994,0.18306,-0.2002,-0.6535,-3.32564,714.07305,700.15435,0.46751,13.70056,0.6535,-0.43307,6.52213,7.55569,7.12261,,,,,,,,,,,,,,,,,,,,,,,,,
46.30599,0.30231,0.35336,-0.88891,-0.27869,-0.00155,1.79931,-0.02977,0.00913,2.01787,0.04308,-0.02446,2.19249,0.67994,0.18306,-0.2002,-0.6535,-3.3268,714.19842,700.15435,0.46748,13.70248,0.6535,-0.4319,6.52213,7.55569,7.12378,,,,,,,,,,,,,,,,,,,,,,,,,
46.30699,0.30231,0.35336,-0.88891,-0.27869,-0.00155,1.79931,-0.02977,0.00913,2.01787,0.04308,-0.02446,2.19249,0.67994,0.18306,-0.2002,-0.6535,-3.3268,714.19842,701.79663,0.46748,13.70442,0.6535,-0.43073,6.52213,7.55569,7.12495,,,,,,,,,,,,,,,,,,,,,,,,,
46.30799,0.30231,0.35336,-0.88891,-0.27481,-0.00211,1.74648,-0.02977,0.00913,2.01787,0.04308,-0.02446,2.19249,0.67994,0.18306,-0.2002,-0.6535,-3.32785,714.31097,701.79663,0.46745,13.70638,0.6535,-0.42966,6.52213,7.55569,7.12603,,,,,,,,,,,,,,,,,,,,,,,,,
46.30899,0.30231,0.35336,-0.88891,-0.27481,-0.00211,1.74648,-0.02977,0.00913,2.01787,0.04308,-0.02446,2.19249,0.67994,0.18306,-0.2002,-0.6535,-3.32785,714.31097,699.06378,0.46745,13.70834,0.6535,-0.42858,6.52213,7.55569,7.1271,,,,,,,,,,,,,,,,,,,,,,,,,
46.31,0.3303,0.2938,-0.97441,-0.27712,0.00632,1.69863,-0.02747,0.00615,2.01787,0.03984,-0.02534,2.21032,0.67994,0.18306,-0.2002,-0.6535,-3.3286,714.39178,699.06378,0.46738,13.71032,0.6535,-0.42737,6.52213,7.55502,7.12764,,,,,,,,,,,,,,,,,,,,,,,,,
46.311,0.3303,0.2938,-0.97441,-0.27712,0.00632,1.69863,-0.02747,0.00615,2.01787,0.03984,-0.02534,2.21032,0.67994,0.18306,-0.2002,-0.6535,-3.3286,714.39178,699.06378,0.46738,13.71232,0.6535,-0.42617,6.52213,7.55502,7.12884,,,,,,,,,,,,,,,,,,,,,,,,,
46.312,0.3303,0.2938,-0.97441,-0.29922,0.01299,1.65069,-0.02747,0.00615,2.01787,0.03984,-0.02534,2.21032,0.67994,0.18306,-0.2002,-0.6535,-3.32977,714.51641,699.06378,0.46735,13.71432,0.6535,-0.42489,6.52213,7.55502,7.13013,,,,,,,,,,,,,,,,,,,,,,,,,
46.31299,0.3303,0.2938,-0.97441,-0.29922,0.01299,1.65069,-0.02747,0.00615,2.01787,0.03984,-0.02534,2.21032,0.67994,0.18306,-0.2002,-0.6535,-3.32977,714.51641,696.89282,0.46735,13.71634,0.6535,-0.4236,6.52213,7.55502,7.13141,,,,,,,,,,,,,,,,,,,,,,,,,
46.31399,0.3303,0.2938,-0.97441,-0.32127,0.0096,1.59659,-0.02747,0.00615,2.01787,0.03984,-0.02534,2.21032,0.67994,0.18306,-0.2002,-0.6535,-3.33087,714.63519,696.89282,0.46731,13.71838,0.6535,-0.42251,6.52213,7.55502,7.1325,,,,,,,,,,,,,,,,,,,,,,,,,
46.31499,0.3303,0.2938,-0.97441,-0.32127,0.0096,1.59659,-0.02747,0.00615,2.01787,0.03984,-0.02534,2.21032,0.67994,0.18306,-0.2002,-0.6535,-3.33087,714.63519,696.89282,0.46731,13.72042,0.6535,-0.42143,6.52213,7.55502,7.13358,,,,,,,,,,,,,,,,,,,,,,,,,
46.316,0.3303,0.2938,-0.97441,-0.32269,0.00454,1.53928,-0.02747,0.00615,2.01787,0.03984,-0.02534,2.21032,0.67994,0.18306,-0.2002,-0.6535,-3.33179,714.73309,696.89282,0.46725,13.72248,0.6535,-0.42056,6.52213,7.55502,7.13445,,,,,,,,,,,,,,,,,,,,,,,,,
46.317,0.3303,0.2938,-0.97441,-0.32269,0.00454,1.53928,-0.02747,0.00615,2.01787,0.03984,-0.02534,2.21032,0.67994,0.18306,-0.2002,-0.6535,-3.33179,714.73309,703.44665,0.46725,13.72455,0.6535,-0.4197,6.52213,7.55502,7.13532,,,,,,,,,,,,,,,,,,,,,,,,,
46.318,0.3303,0.2938,-0.97441,-0.31648,0.00902,1.4856,-0.02747,0.00615,2.01787,0.03984,-0.02534,2.21032,0.67994,0.18306,-0.2002,-0.6535,-3.33263,714.82342,703.44665,0.46719,13.72663,0.6535,-0.41876,6.52213,7.55502,7.13625,,,,,,,,,,,,,,,,,,,,,,,,,
46.319,0.3303,0.2938,-0.97441,-0.31648,0.00902,1.4856,-0.02747,0.00615,2.01787,0.03984,-0.02534,2.21032,0.67994,0.18306,-0.2002,-0.6535,-3.33263,714.82342,696.89282,0.46719,13.72871,0.64949,-0.41782,6.52213,7.55502,7.13719,,,,,,,,,,,,,,,,,,,,,,,,,
46.31999,0.47011,0.2545,-1.04808,-0.32786,0.01825,1.43436,-0.01952,0.00262,2.01787,0.03615,-0.02596,2.22558,0.67394,0.22784,-0.2002,-0.64949,-3.43984,726.22845,696.89282,0.47662,13.73081,0.64949,-0.4162,6.52217,7.78204,7.36583,,,,,,,,,,,,,,,,,,,,,,,,,
46.32099,0.47011,0.2545,-1.04808,-0.32786,0.01825,1.43436,-0.01952,0.00262,2.01787,0.03615,-0.02596,2.22558,0.67394,0.22784,-0.2002,-0.64949,-3.43984,726.22845,699.06378,0.47662,13.73292,0.64949,-0.41458,6.52217,7.78204,7.36745,,,,,,,,,,,,,,,,,,,,,,,,,
46.32199,0.47011,0.2545,-1.04808,-0.35253,0.01921,1.37762,-0.01952,0.00262,2.01787,0.03615,-0.02596,2.22558,0.67394,0.22784,-0.2002,-0.64949,-3.44136,726.38867,703.44665,0.47661,13.73504,0.64949,-0.41295,6.52217,7.78204,7.36908,,,,,,,,,,,,,,,,,,,,,,,,,
46.323,0.47011,0.2545,-1.04808,-0.35253,0.01921,1.37762,-0.01952,0.00262,2.01787,0.03615,-0.02596,2.22558,0.67394,0.22784,-0.2002,-0.64949,-3.44136,726.38867,703.99835,0.47661,13.73717,0.64949,-0.41132,6.52217,7.78204,7.37071,,,,,,,,,,,,,,,,,,,,,,,,,
46.324,0.47011,0.2545,-1.04808,-0.36413,0.01219,1.31338,-0.01952,0.00262,2.01787,0.03615,-0.02596,2.22558,0.67394,0.22784,-0.2002,-0.64949,-3.44277,726.53796,703.99835,0.47659,13.73931,0.64949,-0.40992,6.52217,7.78204,7.37211,,,,,,,,,,,,,,,,,,,,,,,,,
46.325,0.47011,0.2545,-1.04808,-0.36413,0.01219,1.31338,-0.01952,0.00262,2.01787,0.03615,-0.02596,2.22558,0.67394,0.22784,-0.2002,-0.64949,-3.44277,726.53796,703.99835,0.47659,13.74145,0.64949,-0.40852,6.52217,7.78204,7.37351,,,,,,,,,,,,,,,,,,,,,,,,,
46.326,0.47011,0.2545,-1.04808,-0.35822,0.01038,1.24897,-0.01952,0.00262,2.01787,0.03615,-0.02596,2.22558,0.67394,0.22784,-0.2002,-0.64949,-3.44402,726.66931,703.99835,0.47655,13.74361,0.64949,-0.40726,6.52217,7.78204,7.37478,,,,,,,,,,,,,,,,,,,,,,,,,
46.32699,0.47011,0.2545,-1.04808,-0.35822,0.01038,1.24897,-0.01952,0.00262,2.01787,0.03615,-0.02596,2.22558,0.67394,0.22784,-0.2002,-0.64949,-3.44402,726.66931,703.44665,0.47655,13.74578,0.64949,-0.40599,6.52217,7.78204,7.37604,,,,,,,,,,,,,,,,,,,,,,,,,
46.32799,0.47011,0.2545,-1.04808,-0.35891,0.01781,1.18947,-0.01952,0.00262,2.01787,0.03615,-0.02596,2.22558,0.67394,0.22784,-0.2002,-0.64949,-3.44526,726.7998,703.99835,0.47651,13.74795,0.64949,-0.40461,6.52217,7.78204,7.37743,,,,,,,,,,,,,,,,,,,,,,,,,
46.32899,0.47011,0.2545,-1.04808,-0.35891,0.01781,1.18947,-0.01952,0.00262,2.01787,0.03615,-0.02596,2.22558,0.67394,0.22784,-0.2002,-0.64949,-3.44526,726.7998,703.99835,0.47651,13.75014,0.64949,-0.40322,6.52217,7.78204,7.37881,,,,,,,,,,,,,,,,,,,,,,,,,
46.33,0.37335,0.30336,-1.11043,-0.37786,0.02249,1.13018,-0.0216,0.00289,2.01787,0.03205,-0.02642,2.23797,0.67394,0.22784,-0.2002,-0.64949,-3.44674,726.95648,705.10437,0.47649,13.75233,0.64949,-0.40177,6.52217,7.78238,7.38061,,,,,,,,,,,,,,,,,,,,,,,,,
46.331,0.37335,0.30336,-1.11043,-0.37786,0.02249,1.13018,-0.0216,0.00289,2.01787,0.03205,-0.02642,2.23797,0.67394,0.22784,-0.2002,-0.64949,-3.44674,726.95648,711.81433,0.47649,13.75452,0.64949,-0.40031,6.52217,7.78238,7.38206,,,,,,,,,,,,,,,,,,,,,,,,,
46.332,0.37335,0.30336,-1.11043,-0.39472,0.01651,1.06537,-0.0216,0.00289,2.01787,0.03205,-0.02642,2.23797,0.67394,0.22784,-0.2002,-0.64949,-3.44801,727.09027,713.51184,0.47645,13.75672,0.64949,-0.39905,6.52217,7.78238,7.38333,,,,,,,,,,,,,,,,,,,,,,,,,
46.333,0.37335,0.30336,-1.11043,-0.39472,0.01651,1.06537,-0.0216,0.00289,2.01787,0.03205,-0.02642,2.23797,0.67394,0.22784,-0.2002,-0.64949,-3.44801,727.09027,713.51184,0.47645,13.75893,0.64949,-0.39779,6.52217,7.78238,7.38459,,,,,,,,,,,,,,,,,,,,,,,,,
46.33399,0.37335,0.30336,-1.11043,-0.39185,0.0093,0.99868,-0.0216,0.00289,2.01787,0.03205,-0.02642,2.23797,0.67394,0.22784,-0.2002,-0.64949,-3.44909,727.20465,719.80584,0.47639,13.76115,0.64949,-0.39673,6.52217,7.78238,7.38565,,,,,,,,,,,,,,,,,,,,,,,,,
46.33499,0.37335,0.30336,-1.11043,-0.39185,0.0093,0.99868,-0.0216,0.00289,2.01787,0.03205,-0.02642,2.23797,0.67394,0.22784,-0.2002,-0.64949,-3.44909,727.20465,719.80584,0.47639,13.76337,0.64949,-0.39567,6.52217,7.78238,7.38671,,,,,,,,,,,,,,,,,,,,,,,,,
46.33599,0.37335,0.30336,-1.11043,-0.38468,0.01166,0.93767,-0.0216,0.00289,2.01787,0.03205,-0.02642,2.23797,0.67394,0.22784,-0.2002,-0.64949,-3.45013,727.31365,720.38354,0.47633,13.7656,0.64949,-0.39451,6.52217,7.78238,7.38786,,,,,,,,,,,,,,,,,,,,,,,,,
46.337,0.37335,0.30336,-1.11043,-0.38468,0.01166,0.93767,-0.0216,0.00289,2.01787,0.03205,-0.02642,2.23797,0.67394,0.22784,-0.2002,-0.64949,-3.45013,727.31365,720.38354,0.47633,13.76783,0.64949,-0.39335,6.52217,7.78238,7.38902,,,,,,,,,,,,,,,,,,,,,,,,,
46.338,0.37335,0.30336,-1.11043,-0.396,0.01778,0.88143,-0.0216,0.00289,2.01787,0.03205,-0.02642,2.23797,0.67394,0.22784,-0.2002,-0.64949,-3.4513,727.43756,720.38354,0.47628,13.77007,0.64949,-0.39199,6.52217,7.78238,7.39038,,,,,,,,,,,,,,,,,,,,,,,,,
46.339,0.37335,0.30336,-1.11043,-0.396,0.01778,0.88143,-0.0216,0.00289,2.01787,0.03205,-0.02642,2.23797,0.67394,0.22784,-0.2002,-0.64949,-3.4513,727.43756,720.96215,0.47628,13.77231,0.6447,-0.39063,6.52217,7.78238,7.39174,,,,,,,,,,,,,,,,,,,,,,,,,
46.34,0.35547,0.34926,-1.15634,-0.41722,0.01527,0.82197,-0.02329,0.00441,2.01787,0.02767,-0.02673,2.2472,0.66674,0.27271,-0.2002,-0.6447,-3.56239,739.04846,741.20391,0.48585,13.77456,0.6447,-0.38886,6.52222,8.0171,7.62824,,,,,,,,,,,,,,,,,,,,,,,,,
46.34099,0.35547,0.34926,-1.15634,-0.41722,0.01527,0.82197,-0.02329,0.00441,2.01787,0.02767,-0.02673,2.2472,0.66674,0.27271,-0.2002,-0.6447,-3.56239,739.04846,720.96215,0.48585,13.77681,0.6447,-0.38708,6.52222,8.0171,7.63002,,,,,,,,,,,,,,,,,,,,,,,,,
46.34199,0.35547,0.34926,-1.15634,-0.42252,0.0061,0.75713,-0.02329,0.00441,2.01787,0.02767,-0.02673,2.2472,0.66674,0.27271,-0.2002,-0.6447,-3.56392,739.20745,720.96215,0.48582,13.77906,0.6447,-0.38557,6.52222,8.0171,7.63152,,,,,,,,,,,,,,,,,,,,,,,,,
46.34299,0.35547,0.34926,-1.15634,-0.42252,0.0061,0.75713,-0.02329,0.00441,2.01787,0.02767,-0.02673,2.2472,0.66674,0.27271,-0.2002,-0.6447,-3.56392,739.20745,720.96215,0.48582,13.78132,0.6447,-0.38407,6.52222,8.0171,7.63303,,,,,,,,,,,,,,,,,,,,,,,,,
46.344,0.35547,0.34926,-1.15634,-0.41216,0.00308,0.69374,-0.02329,0.00441,2.01787,0.02767,-0.02673,2.2472,0.66674,0.27271,-0.2002,-0.6447,-3.56527,739.34747,720.96215,0.48578,13.78358,0.6447,-0.38268,6.52222,8.0171,7.63441,,,,,,,,,,,,,,,,,,,,,,,,,
46.345,0.35547,0.34926,-1.15634,-0.41216,0.00308,0.69374,-0.02329,0.00441,2.01787,0.02767,-0.02673,2.2472,0.66674,0.27271,-0.2002,-0.6447,-3.56527,739.34747,720.96215,0.48578,13.78584,0.6447,-0.3813,6.52222,8.0171,7.6358,,,,,,,,,,,,,,,,,,,,,,,,,
46.346,0.35547,0.34926,-1.15634,-0.4118,0.00803,0.63617,-0.02329,0.00441,2.01787,0.02767,-0.02673,2.2472,0.66674,0.27271,-0.2002,-0.6447,-3.56662,739.48779,728.56976,0.48574,13.7881,0.6447,-0.37978,6.52222,8.0171,7.63731,,,,,,,,,,,,,,,,,,,,,,,,,
46.347,0.35547,0.34926,-1.15634,-0.4118,0.00803,0.63617,-0.02329,0.00441,2.01787,0.02767,-0.02673,2.2472,0.66674,0.27271,-0.2002,-0.6447,-3.56662,739.48779,728.56976,0.48574,13.79037,0.6447,-0.37827,6.52222,8.0171,7.63882,,,,,,,,,,,,,,,,,,,,,,,,,
46.34799,0.35547,0.34926,-1.15634,-0.42911,0.00868,0.57931,-0.02329,0.00441,2.01787,0.02767,-0.02673,2.2472,0.66674,0.27271,-0.2002,-0.6447,-3.56806,739.63726,715.78778,0.4857,13.79264,0.6447,-0.3767,6.52222,8.0171,7.6404,,,,,,,,,,,,,,,,,,,,,,,,,
46.34899,0.35547,0.34926,-1.15634,-0.42911,0.00868,0.57931,-0.02329,0.00441,2.01787,0.02767,-0.02673,2.2472,0.66674,0.27271,-0.2002,-0.6447,-3.56806,739.63726,715.78778,0.4857,13.79491,0.6447,-0.37512,6.52222,8.0171,7.64198,,,,,,,,,,,,,,,,,,,,,,,,,
46.34999,0.39556,0.33661,-1.18517,-0.44143,-0.00041,0.51761,-0.02311,0.00386,2.01787,0.02308,-0.02706,2.25337,0.66674,0.27271,-0.2002,-0.6447,-3.56944,739.77984,715.21746,0.48566,13.79718,0.6447,-0.3737,6.52222,8.01705,7.64335,,,,,,,,,,,,,,,,,,,,,,,,,
46.351,0.39556,0.33661,-1.18517,-0.44143,-0.00041,0.51761,-0.02311,0.00386,2.01787,0.02308,-0.02706,2.25337,0.66674,0.27271,-0.2002,-0.6447,-3.56944,739.77984,715.21746,0.48566,13.79945,0.6447,-0.37228,6.52222,8.01705,7.64477,,,,,,,,,,,,,,,,,,,,,,,,,
46.352,0.39556,0.33661,-1.18517,-0.43433,-0.00885,0.45444,-0.02311,0.00386,2.01787,0.02308,-0.02706,2.25337,0.66674,0.27271,-0.2002,-0.6447,-3.57071,739.91094,715.21746,0.48561,13.80173,0.6447,-0.37099,6.52222,8.01705,7.64606,,,,,,,,,,,,,,,,,,,,,,,,,
46.353,0.39556,0.33661,-1.18517,-0.43433,-0.00885,0.45444,-0.02311,0.00386,2.01787,0.02308,-0.02706,2.25337,0.66674,0.27271,-0.2002,-0.6447,-3.57071,739.91094,715.78778,0.48561,13.804,0.6447,-0.3697,6.52222,8.01705,7.64735,,,,,,,,,,,,,,,,,,,,,,,,,
46.354,0.39556,0.33661,-1.18517,-0.42515,-0.00825,0.39615,-0.02311,0.00386,2.01787,0.02308,-0.02706,2.25337,0.66674,0.27271,-0.2002,-0.6447,-3.57197,740.04174,715.78778,0.48556,13.80628,0.6447,-0.36828,6.52222,8.01705,7.64876,,,,,,,,,,,,,,,,,,,,,,,,,
46.35499,0.39556,0.33661,-1.18517,-0.42515,-0.00825,0.39615,-0.02311,0.00386,2.01787,0.02308,-0.02706,2.25337,0.66674,0.27271,-0.2002,-0.6447,-3.57197,740.04174,715.21746,0.48556,13.80856,0.6447,-0.36687,6.52222,8.01705,7.65017,,,,,,,,,,,,,,,,,,,,,,,,,
46.35599,0.39556,0.33661,-1.18517,-0.43241,-0.00601,0.34113,-0.02311,0.00386,2.01787,0.02308,-0.02706,2.25337,0.66674,0.27271,-0.2002,-0.6447,-3.57336,740.18615,715.21746,0.48552,13.81085,0.6447,-0.3653,6.52222,8.01705,7.65174,,,,,,,,,,,,,,,,,,,,,,,,,
46.35699,0.39556,0.33661,-1.18517,-0.43241,-0.00601,0.34113,-0.02311,0.00386,2.01787,0.02308,-0.02706,2.25337,0.66674,0.27271,-0.2002,-0.6447,-3.57336,740.18615,718.0783,0.48552,13.81313,0.6447,-0.36373,6.52222,8.01705,7.65332,,,,,,,,,,,,,,,,,,,,,,,,,
46.358,0.39556,0.33661,-1.18517,-0.4446,-0.01138,0.28269,-0.02311,0.00386,2.01787,0.02308,-0.02706,2.25337,0.66674,0.27271,-0.2002,-0.6447,-3.57478,740.33337,718.0783,0.48548,13.81542,0.6447,-0.36226,6.52222,8.01705,7.65479,,,,,,,,,,,,,,,,,,,,,,,,,
46.359,0.39556,0.33661,-1.18517,-0.4446,-0.01138,0.28269,-0.02311,0.00386,2.01787,0.02308,-0.02706,2.25337,0.66674,0.27271,-0.2002,-0.6447,-3.57478,740.33337,718.0783,0.48548,13.8177,0.64099,-0.36078,6.52222,8.01705,7.65626,,,,,,,,,,,,,,,,,,,,,,,,,
46.36,0.57312,0.53143,-1.20311,-0.44154,-0.01894,0.22055,-0.0153,0.01355,2.01787,0.01842,-0.02747,2.25658,0.66119,0.3151,-0.2002,-0.64099,-3.67678,750.8189,719.80584,0.49407,13.81999,0.64099,-0.35909,6.52226,8.2323,7.8732,,,,,,,,,,,,,,,,,,,,,,,,,
46.361,0.57312,0.53143,-1.20311,-0.44154,-0.01894,0.22055,-0.0153,0.01355,2.01787,0.01842,-0.02747,2.25658,0.66119,0.3151,-0.2002,-0.64099,-3.67678,750.8189,720.96215,0.49407,13.82227,0.64099,-0.35739,6.52226,8.2323,7.8749,,,,,,,,,,,,,,,,,,,,,,,,,
46.36199,0.57312,0.53143,-1.20311,-0.43051,-0.01864,0.16125,-0.0153,0.01355,2.01787,0.01842,-0.02747,2.25658,0.66119,0.3151,-0.2002,-0.64099,-3.67837,750.98071,721.54168,0.49404,13.82455,0.64099,-0.35569,6.52226,8.2323,7.8766,,,,,,,,,,,,,,,,,,,,,,,,,
46.36299,0.57312,0.53143,-1.20311,-0.43051,-0.01864,0.16125,-0.0153,0.01355,2.01787,0.01842,-0.02747,2.25658,0.66119,0.3151,-0.2002,-0.64099,-3.67837,750.98071,721.54168,0.49404,13.82683,0.64099,-0.354,6.52226,8.2323,7.8783,,,,,,,,,,,,,,,,,,,,,,,,,
46.36399,0.57312,0.53143,-1.20311,-0.43346,-0.0142,0.10709,-0.0153,0.01355,2.01787,0.01842,-0.02747,2.25658,0.66119,0.3151,-0.2002,-0.64099,-3.68003,751.14984,721.54168,0.49402,13.82911,0.64099,-0.35215,6.52226,8.2323,7.88015,,,,,,,,,,,,,,,,,,,,,,,,,
46.365,0.57312,0.53143,-1.20311,-0.43346,-0.0142,0.10709,-0.0153,0.01355,2.01787,0.01842,-0.02747,2.25658,0.66119,0.3151,-0.2002,-0.64099,-3.68003,751.14984,721.54168,0.49402,13.83139,0.64099,-0.3503,6.52226,8.2323,7.88199,,,,,,,,,,,,,,,,,,,,,,,,,
46.366,0.57312,0.53143,-1.20311,-0.4476,-0.01729,0.05245,-0.0153,0.01355,2.01787,0.01842,-0.02747,2.25658,0.66119,0.3151,-0.2002,-0.64099,-3.68175,751.32537,720.96215,0.494,13.83367,0.64099,-0.34846,6.52226,8.2323,7.88383,,,,,,,,,,,,,,,,,,,,,,,,,
46.367,0.57312,0.53143,-1.20311,-0.4476,-0.01729,0.05245,-0.0153,0.01355,2.01787,0.01842,-0.02747,2.25658,0.66119,0.3151,-0.2002,-0.64099,-3.68175,751.32537,726.21185,0.494,13.83594,0.64099,-0.34663,6.52226,8.2323,7.88566,,,,,,,,,,,,,,,,,,,,,,,,,
46.368,0.57312,0.53143,-1.20311,-0.44888,-0.02745,-0.00628,-0.0153,0.01355,2.01787,0.01842,-0.02747,2.25658,0.66119,0.3151,-0.2002,-0.64099,-3.68337,751.49133,726.21185,0.49398,13.83822,0.64099,-0.34498,6.52226,8.2323,7.88731,,,,,,,,,,,,,,,,,,,,,,,,,
46.36899,0.57312,0.53143,-1.20311,-0.44888,-0.02745,-0.00628,-0.0153,0.01355,2.01787,0.01842,-0.02747,2.25658,0.66119,0.3151,-0.2002,-0.64099,-3.68337,751.49133,726.21185,0.49398,13.84049,0.63489,-0.34333,6.52226,8.2323,7.88896,,,,,,,,,,,,,,,,,,,,,,,,,
46.36999,0.6906,0.39407,-1.20028,-0.43323,-0.03282,-0.06447,-0.00707,0.01016,2.01787,0.01381,-0.028,2.25691,0.65204,0.35621,-0.2002,-0.63489,-3.79021,762.3081,726.21185,0.50283,13.84276,0.63489,-0.3413,6.52232,8.45739,8.11609,,,,,,,,,,,,,,,,,,,,,,,,,
46.37099,0.6906,0.39407,-1.20028,-0.43323,-0.03282,-0.06447,-0.00707,0.01016,2.01787,0.01381,-0.028,2.25691,0.65204,0.35621,-0.2002,-0.63489,-3.79021,762.3081,733.93121,0.50283,13.84503,0.63489,-0.33926,6.52232,8.45739,8.11812,,,,,,,,,,,,,,,,,,,,,,,,,
46.372,0.6906,0.39407,-1.20028,-0.42376,-0.03036,-0.11743,-0.00707,0.01016,2.01787,0.01381,-0.028,2.25691,0.65204,0.35621,-0.2002,-0.63489,-3.79218,762.50628,733.93121,0.50283,13.8473,0.63489,-0.33707,6.52232,8.45739,8.12031,,,,,,,,,,,,,,,,,,,,,,,,,
46.373,0.6906,0.39407,-1.20028,-0.42376,-0.03036,-0.11743,-0.00707,0.01016,2.01787,0.01381,-0.028,2.25691,0.65204,0.35621,-0.2002,-0.63489,-3.79218,762.50628,733.93121,0.50283,13.84956,0.63489,-0.33489,6.52232,8.45739,8.12249,,,,,,,,,,,,,,,,,,,,,,,,,
46.374,0.6906,0.39407,-1.20028,-0.43098,-0.03045,-0.16892,-0.00707,0.01016,2.01787,0.01381,-0.028,2.25691,0.65204,0.35621,-0.2002,-0.63489,-3.79425,762.71453,726.21185,0.50284,13.85183,0.63489,-0.33264,6.52232,8.45739,8.12474,,,,,,,,,,,,,,,,,,,,,,,,,
46.375,0.6906,0.39407,-1.20028,-0.43098,-0.03045,-0.16892,-0.00707,0.01016,2.01787,0.01381,-0.028,2.25691,0.65204,0.35621,-0.2002,-0.63489,-3.79425,762.71453,726.21185,0.50284,13.85409,0.63489,-0.33039,6.52232,8.45739,8.12699,,,,,,,,,,,,,,,,,,,,,,,,,
46.37599,0.6906,0.39407,-1.20028,-0.43542,-0.03816,-0.22487,-0.00707,0.01016,2.01787,0.01381,-0.028,2.25691,0.65204,0.35621,-0.2002,-0.63489,-3.79626,762.91674,726.21185,0.50284,13.85634,0.63489,-0.32833,6.52232,8.45739,8.12905,,,,,,,,,,,,,,,,,,,,,,,,,
46.37699,0.6906,0.39407,-1.20028,-0.43542,-0.03816,-0.22487,-0.00707,0.01016,2.01787,0.01381,-0.028,2.25691,0.65204,0.35621,-0.2002,-0.63489,-3.79626,762.91674,726.21185,0.50284,13.8586,0.63489,-0.32627,6.52232,8.45739,8.13111,,,,,,,,,,,,,,,,,,,,,,,,,
46.37799,0.6906,0.39407,-1.20028,-0.423,-0.04423,-0.28319,-0.00707,0.01016,2.01787,0.01381,-0.028,2.25691,0.65204,0.35621,-0.2002,-0.63489,-3.7981,763.10113,726.21185,0.50283,13.86085,0.63489,-0.3244,6.52232,8.45739,8.13298,,,,,,,,,,,,,,,,,,,,,,,,,
46.379,0.6906,0.39407,-1.20028,-0.423,-0.04423,-0.28319,-0.00707,0.01016,2.01787,0.01381,-0.028,2.25691,0.65204,0.35621,-0.2002,-0.63489,-3.7981,763.10113,726.21185,0.50283,13.8631,0.63489,-0.32253,6.52232,8.45739,8.13485,,,,,,,,,,,,,,,,,,,,,,,,,
46.38,0.51626,0.36143,-1.18603,-0.4103,-0.04167,-0.33758,-0.01267,0.0079,2.01787,0.00943,-0.02866,2.25448,0.65204,0.35621,-0.2002,-0.63489,-3.80001,763.29345,736.94409,0.50283,13.86535,0.63489,-0.3206,6.52232,8.45768,8.13708,,,,,,,,,,,,,,,,,,,,,,,,,
46.381,0.51626,0.36143,-1.18603,-0.4103,-0.04167,-0.33758,-0.01267,0.0079,2.01787,0.00943,-0.02866,2.25448,0.65204,0.35621,-0.2002,-0.63489,-3.80001,763.29345,736.94409,0.50283,13.8676,0.63489,-0.31867,6.52232,8.45768,8.13901,,,,,,,,,,,,,,,,,,,,,,,,,
46.38199,0.51626,0.36143,-1.18603,-0.41458,-0.03824,-0.38825,-0.01267,0.0079,2.01787,0.00943,-0.02866,2.25448,0.65204,0.35621,-0.2002,-0.63489,-3.80187,763.47943,736.94409,0.50282,13.86984,0.63489,-0.31663,6.52232,8.45768,8.14105,,,,,,,,,,,,,,,,,,,,,,,,,
46.38299,0.51626,0.36143,-1.18603,-0.41458,-0.03824,-0.38825,-0.01267,0.0079,2.01787,0.00943,-0.02866,2.25448,0.65204,0.35621,-0.2002,-0.63489,-3.80187,763.47943,736.94409,0.50282,13.87208,0.63489,-0.3146,6.52232,8.45768,8.14308,,,,,,,,,,,,,,,,,,,,,,,,,
46.38399,0.51626,0.36143,-1.18603,-0.42229,-0.04277,-0.4408,-0.01267,0.0079,2.01787,0.00943,-0.02866,2.25448,0.65204,0.35621,-0.2002,-0.63489,-3.80371,763.66467,736.94409,0.50281,13.87432,0.63489,-0.31268,6.52232,8.45768,8.145,,,,,,,,,,,,,,,,,,,,,,,,,
46.38499,0.51626,0.36143,-1.18603,-0.42229,-0.04277,-0.4408,-0.01267,0.0079,2.01787,0.00943,-0.02866,2.25448,0.65204,0.35621,-0.2002,-0.63489,-3.80371,763.66467,738.76373,0.50281,13.87655,0.63489,-0.31076,6.52232,8.45768,8.14691,,,,,,,,,,,,,,,,,,,,,,,,,
46.386,0.51626,0.36143,-1.18603,-0.41217,-0.04931,-0.49588,-0.01267,0.0079,2.01787,0.00943,-0.02866,2.25448,0.65204,0.35621,-0.2002,-0.63489,-3.80541,763.83532,738.76373,0.50279,13.87878,0.63489,-0.30904,6.52232,8.45768,8.14864,,,,,,,,,,,,,,,,,,,,,,,,,
46.387,0.51626,0.36143,-1.18603,-0.41217,-0.04931,-0.49588,-0.01267,0.0079,2.01787,0.00943,-0.02866,2.25448,0.65204,0.35621,-0.2002,-0.63489,-3.80541,763.83532,739.37219,0.50279,13.88101,0.63489,-0.30731,6.52232,8.45768,8.15036,,,,,,,,,,,,,,,,,,,,,,,,,
46.388,0.51626,0.36143,-1.18603,-0.39207,-0.04742,-0.54829,-0.01267,0.0079,2.01787,0.00943,-0.02866,2.25448,0.65204,0.35621,-0.2002,-0.63489,-3.80704,763.99847,741.8164,0.50277,13.88324,0.63489,-0.30556,6.52232,8.45768,8.15212,,,,,,,,,,,,,,,,,,,,,,,,,
46.38899,0.51626,0.36143,-1.18603,-0.39207,-0.04742,-0.54829,-0.01267,0.0079,2.01787,0.00943,-0.02866,2.25448,0.65204,0.35621,-0.2002,-0.63489,-3.80704,763.99847,741.8164,0.50277,13.88546,0.628,-0.3038,6.52232,8.45768,8.15388,,,,,,,,,,,,,,,,,,,,,,,,,
46.38999,0.68058,0.38106,-1.15911,-0.38445,-0.0406,-0.59695,-0.00615,0.00738,2.01787,0.00528,-0.02938,2.24938,0.6417,0.39769,-0.2002,-0.628,-3.91764,775.0119,743.04461,0.51175,13.88768,0.628,-0.30142,6.52241,8.69038,8.38896,,,,,,,,,,,,,,,,,,,,,,,,,
46.39099,0.68058,0.38106,-1.15911,-0.38445,-0.0406,-0.59695,-0.00615,0.00738,2.01787,0.00528,-0.02938,2.24938,0.6417,0.39769,-0.2002,-0.628,-3.91764,775.0119,743.04461,0.51175,13.8899,0.628,-0.29904,6.52241,8.69038,8.39134,,,,,,,,,,,,,,,,,,,,,,,,,
46.39199,0.68058,0.38106,-1.15911,-0.38703,-0.04001,-0.64746,-0.00615,0.00738,2.01787,0.00528,-0.02938,2.24938,0.6417,0.39769,-0.2002,-0.628,-3.91985,775.23004,743.04461,0.51177,13.89212,0.628,-0.29669,6.52241,8.69038,8.39368,,,,,,,,,,,,,,,,,,,,,,,,,
46.393,0.68058,0.38106,-1.15911,-0.38703,-0.04001,-0.64746,-0.00615,0.00738,2.01787,0.00528,-0.02938,2.24938,0.6417,0.39769,-0.2002,-0.628,-3.91985,775.23004,739.37219,0.51177,13.89433,0.628,-0.29435,6.52241,8.69038,8.39602,,,,,,,,,,,,,,,,,,,,,,,,,
46.394,0.68058,0.38106,-1.15911,-0.3786,-0.04496,-0.70247,-0.00615,0.00738,2.01787,0.00528,-0.02938,2.24938,0.6417,0.39769,-0.2002,-0.628,-3.92192,775.43518,743.04461,0.51178,13.89653,0.628,-0.29225,6.52241,8.69038,8.39812,,,,,,,,,,,,,,,,,,,,,,,,,
46.395,0.68058,0.38106,-1.15911,-0.3786,-0.04496,-0.70247,-0.00615,0.00738,2.01787,0.00528,-0.02938,2.24938,0.6417,0.39769,-0.2002,-0.628,-3.92192,775.43518,743.04461,0.51178,13.89873,0.628,-0.29015,6.52241,8.69038,8.40022,,,,,,,,,,,,,,,,,,,,,,,,,
46.39599,0.68058,0.38106,-1.15911,-0.35879,-0.04502,-0.75687,-0.00615,0.00738,2.01787,0.00528,-0.02938,2.24938,0.6417,0.39769,-0.2002,-0.628,-3.92382,775.62292,744.27685,0.51177,13.90093,0.628,-0.28819,6.52241,8.69038,8.40219,,,,,,,,,,,,,,,,,,,,,,,,,
46.39699,0.68058,0.38106,-1.15911,-0.35879,-0.04502,-0.75687,-0.00615,0.00738,2.01787,0.00528,-0.02938,2.24938,0.6417,0.39769,-0.2002,-0.628,-3.92382,775.62292,744.27685,0.51177,13.90312,0.628,-0.28622,6.52241,8.69038,8.40415,,,,,,,,,,,,,,,,,,,,,,,,,
46.39799,0.68058,0.38106,-1.15911,-0.34965,-0.03919,-0.80631,-0.00615,0.00738,2.01787,0.00528,-0.02938,2.24938,0.6417,0.39769,-0.2002,-0.628,-3.92567,775.8059,744.27685,0.51176,13.90531,0.628,-0.28422,6.52241,8.69038,8.40615,,,,,,,,,,,,,,,,,,,,,,,,,
46.39899,0.68058,0.38106,-1.15911,-0.34965,-0.03919,-0.80631,-0.00615,0.00738,2.01787,0.00528,-0.02938,2.24938,0.6417,0.39769,-0.2002,-0.628,-3.92567,775.8059,751.12792,0.51176,13.90749,0.628,-0.28222,6.52241,8.69038,8.40816,,,,,,,,,,,,,,,,,,,,,,,,,
46.4,0.56481,0.38786,-1.11936,-0.35591,-0.03734,-0.854,-0.01074,0.00667,2.01787,0.00164,-0.03005,2.24171,0.6417,0.39769,-0.2002,-0.628,-3.92765,776.0017,747.99822,0.51177,13.90966,0.628,-0.28027,6.52241,8.69067,8.4104,,,,,,,,,,,,,,,,,,,,,,,,,
46.401,0.56481,0.38786,-1.11936,-0.35591,-0.03734,-0.854,-0.01074,0.00667,2.01787,0.00164,-0.03005,2.24171,0.6417,0.39769,-0.2002,-0.628,-3.92765,776.0017,744.27685,0.51177,13.91183,0.628,-0.27832,6.52241,8.69067,8.41234,,,,,,,,,,,,,,,,,,,,,,,,,
46.402,0.56481,0.38786,-1.11936,-0.35584,-0.04179,-0.90422,-0.01074,0.00667,2.01787,0.00164,-0.03005,2.24171,0.6417,0.39769,-0.2002,-0.628,-3.92937,776.17138,747.99822,0.51175,13.91399,0.628,-0.27659,6.52241,8.69067,8.41408,,,,,,,,,,,,,,,,,,,,,,,,,
46.40299,0.56481,0.38786,-1.11936,-0.35584,-0.04179,-0.90422,-0.01074,0.00667,2.01787,0.00164,-0.03005,2.24171,0.6417,0.39769,-0.2002,-0.628,-3.92937,776.17138,747.99822,0.51175,13.91615,0.628,-0.27486,6.52241,8.69067,8.41581,,,,,,,,,,,,,,,,,,,,,,,,,
46.40399,0.56481,0.38786,-1.11936,-0.33911,-0.0429,-0.9546,-0.01074,0.00667,2.01787,0.00164,-0.03005,2.24171,0.6417,0.39769,-0.2002,-0.628,-3.93094,776.32629,747.99822,0.51172,13.9183,0.628,-0.27323,6.52241,8.69067,8.41743,,,,,,,,,,,,,,,,,,,,,,,,,
46.40499,0.56481,0.38786,-1.11936,-0.33911,-0.0429,-0.9546,-0.01074,0.00667,2.01787,0.00164,-0.03005,2.24171,0.6417,0.39769,-0.2002,-0.628,-3.93094,776.32629,747.99822,0.51172,13.92045,0.628,-0.27161,6.52241,8.69067,8.41906,,,,,,,,,,,,,,,,,,,,,,,,,
46.40599,0.56481,0.38786,-1.11936,-0.32352,-0.03657,-1.00073,-0.01074,0.00667,2.01787,0.00164,-0.03005,2.24171,0.6417,0.39769,-0.2002,-0.628,-3.9325,776.48059,744.27685,0.51169,13.92259,0.628,-0.26989,6.52241,8.69067,8.42078,,,,,,,,,,,,,,,,,,,,,,,,,
46.407,0.56481,0.38786,-1.11936,-0.32352,-0.03657,-1.00073,-0.01074,0.00667,2.01787,0.00164,-0.03005,2.24171,0.6417,0.39769,-0.2002,-0.628,-3.9325,776.48059,744.27685,0.51169,13.92472,0.628,-0.26817,6.52241,8.69067,8.4225,,,,,,,,,,,,,,,,,,,,,,,,,
46.408,0.56481,0.38786,-1.11936,-0.32183,-0.03141,-1.04429,-0.01074,0.00667,2.01787,0.00164,-0.03005,2.24171,0.6417,0.39769,-0.2002,-0.628,-3.93412,776.64001,743.04461,0.51166,13.92685,0.628,-0.26643,6.52241,8.69067,8.42424,,,,,,,,,,,,,,,,,,,,,,,,,
46.409,0.56481,0.38786,-1.11936,-0.32183,-0.03141,-1.04429,-0.01074,0.00667,2.01787,0.00164,-0.03005,2.24171,0.6417,0.39769,-0.2002,-0.628,-3.93412,776.64001,743.04461,0.51166,13.92897,0.62059,-0.26469,6.52241,8.69067,8.42598,,,,,,,,,,,,,,,,,,,,,,,,,
46.40999,0.80649,0.58764,-1.06705,-0.32014,-0.03273,-1.09014,-0.0003,0.0162,2.01787,-0.00167,-0.03067,2.23157,0.63059,0.43319,-0.2002,-0.62059,-4.03399,786.43072,744.27685,0.51961,13.93109,0.62059,-0.26275,6.52251,8.90086,8.63811,,,,,,,,,,,,,,,,,,,,,,,,,
46.41099,0.80649,0.58764,-1.06705,-0.32014,-0.03273,-1.09014,-0.0003,0.0162,2.01787,-0.00167,-0.03067,2.23157,0.63059,0.43319,-0.2002,-0.62059,-4.03399,786.43072,744.27685,0.51961,13.9332,0.62059,-0.26081,6.52251,8.90086,8.64005,,,,,,,,,,,,,,,,,,,,,,,,,
46.41199,0.80649,0.58764,-1.06705,-0.3059,-0.03319,-1.13787,-0.0003,0.0162,2.01787,-0.00167,-0.03067,2.23157,0.63059,0.43319,-0.2002,-0.62059,-4.03571,786.59759,744.27685,0.5196,13.9353,0.62059,-0.25908,6.52251,8.90086,8.64177,,,,,,,,,,,,,,,,,,,,,,,,,
46.41299,0.80649,0.58764,-1.06705,-0.3059,-0.03319,-1.13787,-0.0003,0.0162,2.01787,-0.00167,-0.03067,2.23157,0.63059,0.43319,-0.2002,-0.62059,-4.03571,786.59759,744.89453,0.5196,13.93739,0.62059,-0.25736,6.52251,8.90086,8.6435,,,,,,,,,,,,,,,,,,,,,,,,,
46.414,0.80649,0.58764,-1.06705,-0.29217,-0.027,-1.18305,-0.0003,0.0162,2.01787,-0.00167,-0.03067,2.23157,0.63059,0.43319,-0.2002,-0.62059,-4.03731,786.75372,744.89453,0.51957,13.93948,0.62059,-0.25565,6.52251,8.90086,8.6452,,,,,,,,,,,,,,,,,,,,,,,,,
46.415,0.80649,0.58764,-1.06705,-0.29217,-0.027,-1.18305,-0.0003,0.0162,2.01787,-0.00167,-0.03067,2.23157,0.63059,0.43319,-0.2002,-0.62059,-4.03731,786.75372,746.13293,0.51957,13.94155,0.62059,-0.25395,6.52251,8.90086,8.64691,,,,,,,,,,,,,,,,,,,,,,,,,
46.416,0.80649,0.58764,-1.06705,-0.29282,-0.02051,-1.22507,-0.0003,0.0162,2.01787,-0.00167,-0.03067,2.23157,0.63059,0.43319,-0.2002,-0.62059,-4.03891,786.90991,746.13293,0.51954,13.94362,0.62059,-0.25222,6.52251,8.90086,8.64864,,,,,,,,,,,,,,,,,,,,,,,,,
46.41699,0.80649,0.58764,-1.06705,-0.29282,-0.02051,-1.22507,-0.0003,0.0162,2.01787,-0.00167,-0.03067,2.23157,0.63059,0.43319,-0.2002,-0.62059,-4.03891,786.90991,746.13293,0.51954,13.94568,0.62059,-0.25049,6.52251,8.90086,8.65037,,,,,,,,,,,,,,,,,,,,,,,,,
46.41799,0.80649,0.58764,-1.06705,-0.29565,-0.01973,-1.26714,-0.0003,0.0162,2.01787,-0.00167,-0.03067,2.23157,0.63059,0.43319,-0.2002,-0.62059,-4.04048,787.06256,748.62207,0.51952,13.94774,0.62059,-0.24886,6.52251,8.90086,8.65199,,,,,,,,,,,,,,,,,,,,,,,,,
46.41899,0.80649,0.58764,-1.06705,-0.29565,-0.01973,-1.26714,-0.0003,0.0162,2.01787,-0.00167,-0.03067,2.23157,0.63059,0.43319,-0.2002,-0.62059,-4.04048,787.06256,759.38909,0.51952,13.94979,0.6124,-0.24724,6.52251,8.90086,8.65362,,,,,,,,,,,,,,,,,,,,,,,,,
46.41999,0.92113,0.46366,-1.00406,-0.28385,-0.01896,-1.30873,0.00899,0.01343,2.01787,-0.00455,-0.03118,2.2192,0.61829,0.47969,-0.2002,-0.6124,-4.16579,799.16662,759.38909,0.52937,13.95182,0.6124,-0.24516,6.52262,9.16549,8.92032,,,,,,,,,,,,,,,,,,,,,,,,,
46.421,0.92113,0.46366,-1.00406,-0.28385,-0.01896,-1.30873,0.00899,0.01343,2.01787,-0.00455,-0.03118,2.2192,0.61829,0.47969,-0.2002,-0.6124,-4.16579,799.16662,761.96765,0.52937,13.95385,0.6124,-0.24309,6.52262,9.16549,8.92239,,,,,,,,,,,,,,,,,,,,,,,,,
46.422,0.92113,0.46366,-1.00406,-0.26627,-0.01195,-1.3451,0.00899,0.01343,2.01787,-0.00455,-0.03118,2.2192,0.61829,0.47969,-0.2002,-0.6124,-4.16778,799.35754,761.96765,0.52937,13.95587,0.6124,-0.2409,6.52262,9.16549,8.92458,,,,,,,,,,,,,,,,,,,,,,,,,
46.423,0.92113,0.46366,-1.00406,-0.26627,-0.01195,-1.3451,0.00899,0.01343,2.01787,-0.00455,-0.03118,2.2192,0.61829,0.47969,-0.2002,-0.6124,-4.16778,799.35754,759.38909,0.52937,13.95788,0.6124,-0.23871,6.52262,9.16549,8.92677,,,,,,,,,,,,,,,,,,,,,,,,,
46.42399,0.92113,0.46366,-1.00406,-0.26035,-0.00415,-1.37524,0.00899,0.01343,2.01787,-0.00455,-0.03118,2.2192,0.61829,0.47969,-0.2002,-0.6124,-4.16989,799.56018,759.38909,0.52939,13.95987,0.6124,-0.23638,6.52262,9.16549,8.9291,,,,,,,,,,,,,,,,,,,,,,,,,
46.42499,0.92113,0.46366,-1.00406,-0.26035,-0.00415,-1.37524,0.00899,0.01343,2.01787,-0.00455,-0.03118,2.2192,0.61829,0.47969,-0.2002,-0.6124,-4.16989,799.56018,761.96765,0.52939,13.96186,0.6124,-0.23404,6.52262,9.16549,8.93144,,,,,,,,,,,,,,,,,,,,,,,,,
46.42599,0.92113,0.46366,-1.00406,-0.26002,-0.00266,-1.40384,0.00899,0.01343,2.01787,-0.00455,-0.03118,2.2192,0.61829,0.47969,-0.2002,-0.6124,-4.17203,799.76568,764.56378,0.52941,13.96384,0.6124,-0.23179,6.52262,9.16549,8.9337,,,,,,,,,,,,,,,,,,,,,,,,,
46.42699,0.92113,0.46366,-1.00406,-0.26002,-0.00266,-1.40384,0.00899,0.01343,2.01787,-0.00455,-0.03118,2.2192,0.61829,0.47969,-0.2002,-0.6124,-4.17203,799.76568,761.96765,0.52941,13.96581,0.6124,-0.22953,6.52262,9.16549,8.93595,,,,,,,,,,,,,,,,,,,,,,,,,
46.428,0.92113,0.46366,-1.00406,-0.24813,-0.00235,-1.43387,0.00899,0.01343,2.01787,-0.00455,-0.03118,2.2192,0.61829,0.47969,-0.2002,-0.6124,-4.17406,799.95947,764.56378,0.52942,13.96777,0.6124,-0.22746,6.52262,9.16549,8.93803,,,,,,,,,,,,,,,,,,,,,,,,,
46.429,0.92113,0.46366,-1.00406,-0.24813,-0.00235,-1.43387,0.00899,0.01343,2.01787,-0.00455,-0.03118,2.2192,0.61829,0.47969,-0.2002,-0.6124,-4.17406,799.95947,764.56378,0.52942,13.96972,0.60669,-0.22538,6.52262,9.16549,8.9401,,,,,,,,,,,,,,,,,,,,,,,,,
46.43,0.78028,0.43921,-0.9321,-0.23,0.00528,-1.46335,0.00635,0.01207,2.01787,-0.00705,-0.03148,2.20499,0.60974,0.50275,-0.2002,-0.60669,-4.24238,806.47491,765.86853,0.53465,13.97166,0.60669,-0.22306,6.52271,9.3074,9.08434,,,,,,,,,,,,,,,,,,,,,,,,,
46.43099,0.78028,0.43921,-0.9321,-0.23,0.00528,-1.46335,0.00635,0.01207,2.01787,-0.00705,-0.03148,2.20499,0.60974,0.50275,-0.2002,-0.60669,-4.24238,806.47491,764.56378,0.53465,13.97359,0.60669,-0.22074,6.52271,9.3074,9.08666,,,,,,,,,,,,,,,,,,,,,,,,,
46.43199,0.78028,0.43921,-0.9321,-0.22448,0.01683,-1.49142,0.00635,0.01207,2.01787,-0.00705,-0.03148,2.20499,0.60974,0.50275,-0.2002,-0.60669,-4.24458,806.68359,764.56378,0.53468,13.9755,0.60669,-0.21836,6.52271,9.3074,9.08904,,,,,,,,,,,,,,,,,,,,,,,,,
46.43299,0.78028,0.43921,-0.9321,-0.22448,0.01683,-1.49142,0.00635,0.01207,2.01787,-0.00705,-0.03148,2.20499,0.60974,0.50275,-0.2002,-0.60669,-4.24458,806.68359,763.26348,0.53468,13.97741,0.60669,-0.21598,6.52271,9.3074,9.09142,,,,,,,,,,,,,,,,,,,,,,,,,
46.43399,0.78028,0.43921,-0.9321,-0.22886,0.02326,-1.52145,0.00635,0.01207,2.01787,-0.00705,-0.03148,2.20499,0.60974,0.50275,-0.2002,-0.60669,-4.24678,806.89227,763.26348,0.5347,13.97931,0.60669,-0.21366,6.52271,9.3074,9.09374,,,,,,,,,,,,,,,,,,,,,,,,,
46.435,0.78028,0.43921,-0.9321,-0.22886,0.02326,-1.52145,0.00635,0.01207,2.01787,-0.00705,-0.03148,2.20499,0.60974,0.50275,-0.2002,-0.60669,-4.24678,806.89227,763.26348,0.5347,13.9812,0.60669,-0.21133,6.52271,9.3074,9.09607,,,,,,,,,,,,,,,,,,,,,,,,,
46.436,0.78028,0.43921,-0.9321,-0.22353,0.02553,-1.55503,0.00635,0.01207,2.01787,-0.00705,-0.03148,2.20499,0.60974,0.50275,-0.2002,-0.60669,-4.24889,807.09332,764.56378,0.53473,13.98307,0.60669,-0.20912,6.52271,9.3074,9.09827,,,,,,,,,,,,,,,,,,,,,,,,,
46.437,0.78028,0.43921,-0.9321,-0.22353,0.02553,-1.55503,0.00635,0.01207,2.01787,-0.00705,-0.03148,2.20499,0.60974,0.50275,-0.2002,-0.60669,-4.24889,807.09332,769.14984,0.53473,13.98493,0.60669,-0.20692,6.52271,9.3074,9.10048,,,,,,,,,,,,,,,,,,,,,,,,,
46.43799,0.78028,0.43921,-0.9321,-0.20736,0.03095,-1.58826,0.00635,0.01207,2.01787,-0.00705,-0.03148,2.20499,0.60974,0.50275,-0.2002,-0.60669,-4.25097,807.29028,763.26348,0.53475,13.98679,0.60669,-0.20468,6.52271,9.3074,9.10272,,,,,,,,,,,,,,,,,,,,,,,,,
46.43899,0.78028,0.43921,-0.9321,-0.20736,0.03095,-1.58826,0.00635,0.01207,2.01787,-0.00705,-0.03148,2.20499,0.60974,0.50275,-0.2002,-0.60669,-4.25097,807.29028,769.14984,0.53475,13.98863,0.60669,-0.20245,6.52271,9.3074,9.10495,,,,,,,,,,,,,,,,,,,,,,,,,
46.43999,0.66111,0.41984,-0.8534,-0.19784,0.03876,-1.61789,0.0001,0.0104,2.01787,-0.00908,-0.03151,2.18939,0.60974,0.50275,-0.2002,-0.60669,-4.25292,807.47534,763.26348,0.53476,13.99046,0.60669,-0.20015,6.52271,9.30704,9.10689,,,,,,,,,,,,,,,,,,,,,,,,,
46.441,0.66111,0.41984,-0.8534,-0.19784,0.03876,-1.61789,0.0001,0.0104,2.01787,-0.00908,-0.03151,2.18939,0.60974,0.50275,-0.2002,-0.60669,-4.25292,807.47534,763.26348,0.53476,13.99227,0.60669,-0.19784,6.52271,9.30704,9.10919,,,,,,,,,,,,,,,,,,,,,,,,,
46.442,0.66111,0.41984,-0.8534,-0.19727,0.04272,-1.64592,0.0001,0.0104,2.01787,-0.00908,-0.03151,2.18939,0.60974,0.50275,-0.2002,-0.60669,-4.25501,807.67413,769.14984,0.53478,13.99408,0.60669,-0.19566,6.52271,9.30704,9.11137,,,,,,,,,,,,,,,,,,,,,,,,,
46.443,0.66111,0.41984,-0.8534,-0.19727,0.04272,-1.64592,0.0001,0.0104,2.01787,-0.00908,-0.03151,2.18939,0.60974,0.50275,-0.2002,-0.60669,-4.25501,807.67413,771.1322,0.53478,13.99587,0.60669,-0.19348,6.52271,9.30704,9.11355,,,,,,,,,,,,,,,,,,,,,,,,,
46.444,0.66111,0.41984,-0.8534,-0.18968,0.04494,-1.67467,0.0001,0.0104,2.01787,-0.00908,-0.03151,2.18939,0.60974,0.50275,-0.2002,-0.60669,-4.25693,807.8565,771.1322,0.5348,13.99765,0.60669,-0.19155,6.52271,9.30704,9.11549,,,,,,,,,,,,,,,,,,,,,,,,,
46.44499,0.66111,0.41984,-0.8534,-0.18968,0.04494,-1.67467,0.0001,0.0104,2.01787,-0.00908,-0.03151,2.18939,0.60974,0.50275,-0.2002,-0.60669,-4.25693,807.8565,771.1322,0.5348,13.99941,0.60669,-0.18961,6.52271,9.30704,9.11742,,,,,,,,,,,,,,,,,,,,,,,,,
46.44599,0.66111,0.41984,-0.8534,-0.173,0.05286,-1.70235,0.0001,0.0104,2.01787,-0.00908,-0.03151,2.18939,0.60974,0.50275,-0.2002,-0.60669,-4.25868,808.0227,771.1322,0.5348,14.00116,0.60669,-0.1878,6.52271,9.30704,9.11924,,,,,,,,,,,,,,,,,,,,,,,,,
46.44699,0.66111,0.41984,-0.8534,-0.173,0.05286,-1.70235,0.0001,0.0104,2.01787,-0.00908,-0.03151,2.18939,0.60974,0.50275,-0.2002,-0.60669,-4.25868,808.0227,772.45947,0.5348,14.0029,0.60669,-0.18598,6.52271,9.30704,9.12106,,,,,,,,,,,,,,,,,,,,,,,,,
46.448,0.66111,0.41984,-0.8534,-0.16359,0.06451,-1.72737,0.0001,0.0104,2.01787,-0.00908,-0.03151,2.18939,0.60974,0.50275,-0.2002,-0.60669,-4.26037,808.18286,771.1322,0.5348,14.00462,0.60669,-0.18418,6.52271,9.30704,9.12286,,,,,,,,,,,,,,,,,,,,,,,,,
46.449,0.66111,0.41984,-0.8534,-0.16359,0.06451,-1.72737,0.0001,0.0104,2.01787,-0.00908,-0.03151,2.18939,0.60974,0.50275,-0.2002,-0.60669,-4.26037,808.18286,771.1322,0.5348,14.00634,0.59789,-0.18238,6.52271,9.30704,9.12465,,,,,,,,,,,,,,,,,,,,,,,,,
46.45,0.85299,0.5038,-0.7664,-0.16431,0.0711,-1.75226,0.00694,0.01387,2.01787,-0.01075,-0.03124,2.1723,0.59654,0.5219,-0.2002,-0.59789,-4.33039,814.78735,771.1322,0.54011,14.00804,0.59789,-0.18044,6.52287,9.45323,9.27279,,,,,,,,,,,,,,,,,,,,,,,,,
46.451,0.85299,0.5038,-0.7664,-0.16431,0.0711,-1.75226,0.00694,0.01387,2.01787,-0.01075,-0.03124,2.1723,0.59654,0.5219,-0.2002,-0.59789,-4.33039,814.78735,769.14984,0.54011,14.00973,0.59789,-0.1785,6.52287,9.45323,9.27473,,,,,,,,,,,,,,,,,,,,,,,,,
46.45199,0.85299,0.5038,-0.7664,-0.1583,0.07291,-1.77897,0.00694,0.01387,2.01787,-0.01075,-0.03124,2.1723,0.59654,0.5219,-0.2002,-0.59789,-4.33208,814.94696,769.14984,0.54011,14.0114,0.59789,-0.17681,6.52287,9.45323,9.27642,,,,,,,,,,,,,,,,,,,,,,,,,
46.45299,0.85299,0.5038,-0.7664,-0.1583,0.07291,-1.77897,0.00694,0.01387,2.01787,-0.01075,-0.03124,2.1723,0.59654,0.5219,-0.2002,-0.59789,-4.33208,814.94696,769.14984,0.54011,14.01306,0.59789,-0.17512,6.52287,9.45323,9.27811,,,,,,,,,,,,,,,,,,,,,,,,,
46.45399,0.85299,0.5038,-0.7664,-0.1413,0.07825,-1.80449,0.00694,0.01387,2.01787,-0.01075,-0.03124,2.1723,0.59654,0.5219,-0.2002,-0.59789,-4.33362,815.09112,769.14984,0.5401,14.01471,0.59789,-0.17353,6.52287,9.45323,9.2797,,,,,,,,,,,,,,,,,,,,,,,,,
46.455,0.85299,0.5038,-0.7664,-0.1413,0.07825,-1.80449,0.00694,0.01387,2.01787,-0.01075,-0.03124,2.1723,0.59654,0.5219,-0.2002,-0.59789,-4.33362,815.09112,769.14984,0.5401,14.01635,0.59789,-0.17193,6.52287,9.45323,9.28129,,,,,,,,,,,,,,,,,,,,,,,,,
46.456,0.85299,0.5038,-0.7664,-0.12988,0.08748,-1.82584,0.00694,0.01387,2.01787,-0.01075,-0.03124,2.1723,0.59654,0.5219,-0.2002,-0.59789,-4.33512,815.23211,772.45947,0.54009,14.01797,0.59789,-0.17032,6.52287,9.45323,9.28291,,,,,,,,,,,,,,,,,,,,,,,,,
46.457,0.85299,0.5038,-0.7664,-0.12988,0.08748,-1.82584,0.00694,0.01387,2.01787,-0.01075,-0.03124,2.1723,0.59654,0.5219,-0.2002,-0.59789,-4.33512,815.23211,772.45947,0.54009,14.01958,0.59789,-0.1687,6.52287,9.45323,9.28453,,,,,,,,,,,,,,,,,,,,,,,,,
46.458,0.85299,0.5038,-0.7664,-0.12939,0.09297,-1.84524,0.00694,0.01387,2.01787,-0.01075,-0.03124,2.1723,0.59654,0.5219,-0.2002,-0.59789,-4.33657,815.36883,772.45947,0.54008,14.02118,0.59789,-0.1672,6.52287,9.45323,9.28603,,,,,,,,,,,,,,,,,,,,,,,,,
46.45899,0.85299,0.5038,-0.7664,-0.12939,0.09297,-1.84524,0.00694,0.01387,2.01787,-0.01075,-0.03124,2.1723,0.59654,0.5219,-0.2002,-0.59789,-4.33657,815.36883,773.79132,0.54008,14.02277,0.59789,-0.16571,6.52287,9.45323,9.28752,,,,,,,,,,,,,,,,,,,,,,,,,
46.45999,0.72444,0.43736,-0.67496,-0.12361,0.09485,-1.86559,0.00181,0.01176,2.01787,-0.01198,-0.03068,2.15396,0.59654,0.5219,-0.2002,-0.59789,-4.33762,815.46777,773.79132,0.54004,14.02434,0.59789,-0.16448,6.52287,9.45277,9.28828,,,,,,,,,,,,,,,,,,,,,,,,,
46.46099,0.72444,0.43736,-0.67496,-0.12361,0.09485,-1.86559,0.00181,0.01176,2.01787,-0.01198,-0.03068,2.15396,0.59654,0.5219,-0.2002,-0.59789,-4.33762,815.46777,775.12774,0.54004,14.02591,0.59789,-0.16325,6.52287,9.45277,9.28951,,,,,,,,,,,,,,,,,,,,,,,,,
46.462,0.72444,0.43736,-0.67496,-0.10674,0.10119,-1.88474,0.00181,0.01176,2.01787,-0.01198,-0.03068,2.15396,0.59654,0.5219,-0.2002,-0.59789,-4.33871,815.56958,775.12774,0.54,14.02746,0.59789,-0.16216,6.52287,9.45277,9.2906,,,,,,,,,,,,,,,,,,,,,,,,,
46.463,0.72444,0.43736,-0.67496,-0.10674,0.10119,-1.88474,0.00181,0.01176,2.01787,-0.01198,-0.03068,2.15396,0.59654,0.5219,-0.2002,-0.59789,-4.33871,815.56958,775.12774,0.54,14.02899,0.59789,-0.16107,6.52287,9.45277,9.29169,,,,,,,,,,,,,,,,,,,,,,,,,
46.464,0.72444,0.43736,-0.67496,-0.09558,0.11197,-1.89976,0.00181,0.01176,2.01787,-0.01198,-0.03068,2.15396,0.59654,0.5219,-0.2002,-0.59789,-4.33973,815.66528,775.12774,0.53996,14.03052,0.59789,-0.15998,6.52287,9.45277,9.29278,,,,,,,,,,,,,,,,,,,,,,,,,
46.465,0.72444,0.43736,-0.67496,-0.09558,0.11197,-1.89976,0.00181,0.01176,2.01787,-0.01198,-0.03068,2.15396,0.59654,0.5219,-0.2002,-0.59789,-4.33973,815.66528,775.12774,0.53996,14.03203,0.59789,-0.15889,6.52287,9.45277,9.29387,,,,,,,,,,,,,,,,,,,,,,,,,
46.46599,0.72444,0.43736,-0.67496,-0.09747,0.11873,-1.91279,0.00181,0.01176,2.01787,-0.01198,-0.03068,2.15396,0.59654,0.5219,-0.2002,-0.59789,-4.34069,815.75616,775.12774,0.53992,14.03353,0.59789,-0.15791,6.52287,9.45277,9.29485,,,,,,,,,,,,,,,,,,,,,,,,,
46.46699,0.72444,0.43736,-0.67496,-0.09747,0.11873,-1.91279,0.00181,0.01176,2.01787,-0.01198,-0.03068,2.15396,0.59654,0.5219,-0.2002,-0.59789,-4.34069,815.75616,775.12774,0.53992,14.03502,0.59789,-0.15693,6.52287,9.45277,9.29584,,,,,,,,,,,,,,,,,,,,,,,,,
46.46799,0.72444,0.43736,-0.67496,-0.09607,0.12041,-1.92735,0.00181,0.01176,2.01787,-0.01198,-0.03068,2.15396,0.59654,0.5219,-0.2002,-0.59789,-4.34151,815.83294,775.12774,0.53987,14.03649,0.59789,-0.15616,6.52287,9.45277,9.2966,,,,,,,,,,,,,,,,,,,,,,,,,
46.469,0.72444,0.43736,-0.67496,-0.09607,0.12041,-1.92735,0.00181,0.01176,2.01787,-0.01198,-0.03068,2.15396,0.59654,0.5219,-0.2002,-0.59789,-4.34151,815.83294,781.19921,0.53987,14.03796,0.58829,-0.1554,6.52287,9.45277,9.29736,,,,,,,,,,,,,,,,,,,,,,,,,
46.47,0.92317,0.5778,-0.57663,-0.08297,0.12492,-1.94213,0.01021,0.01887,2.01787,-0.01284,-0.02979,2.13472,0.58214,0.56453,-0.2002,-0.58829,-4.463,827.15698,775.12774,0.54906,14.03941,0.58829,-0.1542,6.52305,9.71095,9.55675,,,,,,,,,,,,,,,,,,,,,,,,,
46.471,0.92317,0.5778,-0.57663,-0.08297,0.12492,-1.94213,0.01021,0.01887,2.01787,-0.01284,-0.02979,2.13472,0.58214,0.56453,-0.2002,-0.58829,-4.463,827.15698,781.19921,0.54906,14.04085,0.58829,-0.153,6.52305,9.71095,9.55794,,,,,,,,,,,,,,,,,,,,,,,,,
46.472,0.92317,0.5778,-0.57663,-0.07327,0.13368,-1.9539,0.01021,0.01887,2.01787,-0.01284,-0.02979,2.13472,0.58214,0.56453,-0.2002,-0.58829,-4.46415,827.26336,781.19921,0.54904,14.04228,0.58829,-0.15174,6.52305,9.71095,9.5592,,,,,,,,,,,,,,,,,,,,,,,,,
46.47299,0.92317,0.5778,-0.57663,-0.07327,0.13368,-1.9539,0.01021,0.01887,2.01787,-0.01284,-0.02979,2.13472,0.58214,0.56453,-0.2002,-0.58829,-4.46415,827.26336,781.19921,0.54904,14.04369,0.58829,-0.15048,6.52305,9.71095,9.56047,,,,,,,,,,,,,,,,,,,,,,,,,
46.47399,0.92317,0.5778,-0.57663,-0.07538,0.13965,-1.96355,0.01021,0.01887,2.01787,-0.01284,-0.02979,2.13472,0.58214,0.56453,-0.2002,-0.58829,-4.46529,827.36981,781.19921,0.54901,14.0451,0.58829,-0.14928,6.52305,9.71095,9.56166,,,,,,,,,,,,,,,,,,,,,,,,,
46.47499,0.92317,0.5778,-0.57663,-0.07538,0.13965,-1.96355,0.01021,0.01887,2.01787,-0.01284,-0.02979,2.13472,0.58214,0.56453,-0.2002,-0.58829,-4.46529,827.36981,789.44403,0.54901,14.04649,0.58829,-0.14808,6.52305,9.71095,9.56286,,,,,,,,,,,,,,,,,,,,,,,,,
46.476,0.92317,0.5778,-0.57663,-0.07472,0.14212,-1.97334,0.01021,0.01887,2.01787,-0.01284,-0.02979,2.13472,0.58214,0.56453,-0.2002,-0.58829,-4.46631,827.4638,792.23114,0.54898,14.04787,0.58829,-0.14711,6.52305,9.71095,9.56384,,,,,,,,,,,,,,,,,,,,,,,,,
46.477,0.92317,0.5778,-0.57663,-0.07472,0.14212,-1.97334,0.01021,0.01887,2.01787,-0.01284,-0.02979,2.13472,0.58214,0.56453,-0.2002,-0.58829,-4.46631,827.4638,792.23114,0.54898,14.04924,0.58829,-0.14613,6.52305,9.71095,9.56481,,,,,,,,,,,,,,,,,,,,,,,,,
46.478,0.92317,0.5778,-0.57663,-0.06316,0.14869,-1.98152,0.01021,0.01887,2.01787,-0.01284,-0.02979,2.13472,0.58214,0.56453,-0.2002,-0.58829,-4.46717,827.54309,795.74279,0.54894,14.0506,0.58829,-0.14527,6.52305,9.71095,9.56567,,,,,,,,,,,,,,,,,,,,,,,,,
46.479,0.92317,0.5778,-0.57663,-0.06316,0.14869,-1.98152,0.01021,0.01887,2.01787,-0.01284,-0.02979,2.13472,0.58214,0.56453,-0.2002,-0.58829,-4.46717,827.54309,792.23114,0.54894,14.05195,0.57849,-0.14442,6.52305,9.71095,9.56653,,,,,,,,,,,,,,,,,,,,,,,,,
46.47999,0.91004,0.42797,-0.47926,-0.05556,0.1603,-1.98558,0.01236,0.01438,2.01787,-0.01343,-0.02864,2.1149,0.56744,0.584,-0.2002,-0.57849,-4.53972,834.22235,792.23114,0.55432,14.05328,0.57849,-0.14322,6.52327,9.86425,9.72103,,,,,,,,,,,,,,,,,,,,,,,,,
46.48099,0.91004,0.42797,-0.47926,-0.05556,0.1603,-1.98558,0.01236,0.01438,2.01787,-0.01343,-0.02864,2.1149,0.56744,0.584,-0.2002,-0.57849,-4.53972,834.22235,792.23114,0.55432,14.0546,0.57849,-0.14203,6.52327,9.86425,9.72222,,,,,,,,,,,,,,,,,,,,,,,,,
46.48199,0.91004,0.42797,-0.47926,-0.06035,0.16933,-1.98804,0.01236,0.01438,2.01787,-0.01343,-0.02864,2.1149,0.56744,0.584,-0.2002,-0.57849,-4.5408,834.32208,792.23114,0.5543,14.0559,0.57849,-0.1409,6.52327,9.86425,9.72335,,,,,,,,,,,,,,,,,,,,,,,,,
46.483,0.91004,0.42797,-0.47926,-0.06035,0.16933,-1.98804,0.01236,0.01438,2.01787,-0.01343,-0.02864,2.1149,0.56744,0.584,-0.2002,-0.57849,-4.5408,834.32208,795.74279,0.5543,14.05719,0.57849,-0.13977,6.52327,9.86425,9.72448,,,,,,,,,,,,,,,,,,,,,,,,,
46.484,0.91004,0.42797,-0.47926,-0.06259,0.17451,-1.99258,0.01236,0.01438,2.01787,-0.01343,-0.02864,2.1149,0.56744,0.584,-0.2002,-0.57849,-4.54178,834.41168,795.74279,0.55427,14.05847,0.57849,-0.13881,6.52327,9.86425,9.72544,,,,,,,,,,,,,,,,,,,,,,,,,
46.485,0.91004,0.42797,-0.47926,-0.06259,0.17451,-1.99258,0.01236,0.01438,2.01787,-0.01343,-0.02864,2.1149,0.56744,0.584,-0.2002,-0.57849,-4.54178,834.41168,795.74279,0.55427,14.05974,0.57849,-0.13785,6.52327,9.86425,9.7264,,,,,,,,,,,,,,,,,,,,,,,,,
46.486,0.91004,0.42797,-0.47926,-0.05367,0.18305,-1.99727,0.01236,0.01438,2.01787,-0.01343,-0.02864,2.1149,0.56744,0.584,-0.2002,-0.57849,-4.54265,834.49194,792.23114,0.55424,14.06099,0.57849,-0.13694,6.52327,9.86425,9.72731,,,,,,,,,,,,,,,,,,,,,,,,,
46.48699,0.91004,0.42797,-0.47926,-0.05367,0.18305,-1.99727,0.01236,0.01438,2.01787,-0.01343,-0.02864,2.1149,0.56744,0.584,-0.2002,-0.57849,-4.54265,834.49194,792.23114,0.55424,14.06222,0.57849,-0.13603,6.52327,9.86425,9.72822,,,,,,,,,,,,,,,,,,,,,,,,,
46.48799,0.91004,0.42797,-0.47926,-0.04849,0.1957,-1.99804,0.01236,0.01438,2.01787,-0.01343,-0.02864,2.1149,0.56744,0.584,-0.2002,-0.57849,-4.54355,834.57446,792.93103,0.55421,14.06345,0.57849,-0.13502,6.52327,9.86425,9.72923,,,,,,,,,,,,,,,,,,,,,,,,,
46.48899,0.91004,0.42797,-0.47926,-0.04849,0.1957,-1.99804,0.01236,0.01438,2.01787,-0.01343,-0.02864,2.1149,0.56744,0.584,-0.2002,-0.57849,-4.54355,834.57446,792.93103,0.55421,14.06467,0.5717,-0.134,6.52327,9.86425,9.73025,,,,,,,,,,,,,,,,,,,,,,,,,
46.49,1.01874,0.50299,-0.37799,-0.05591,0.20474,-1.99585,0.01976,0.01786,2.01787,-0.01394,-0.02703,2.09489,0.55724,0.60023,-0.2002,-0.5717,-4.60098,839.82147,792.93103,0.55841,14.06588,0.5717,-0.13276,6.52343,9.98497,9.8522,,,,,,,,,,,,,,,,,,,,,,,,,
46.491,1.01874,0.50299,-0.37799,-0.05591,0.20474,-1.99585,0.01976,0.01786,2.01787,-0.01394,-0.02703,2.09489,0.55724,0.60023,-0.2002,-0.5717,-4.60098,839.82147,795.74279,0.55841,14.06707,0.5717,-0.13151,6.52343,9.98497,9.85345,,,,,,,,,,,,,,,,,,,,,,,,,
46.492,1.01874,0.50299,-0.37799,-0.06163,0.209,-1.99392,0.01976,0.01786,2.01787,-0.01394,-0.02703,2.09489,0.55724,0.60023,-0.2002,-0.5717,-4.60206,839.92083,792.93103,0.5584,14.06826,0.5717,-0.13043,6.52343,9.98497,9.85453,,,,,,,,,,,,,,,,,,,,,,,,,
46.493,1.01874,0.50299,-0.37799,-0.06163,0.209,-1.99392,0.01976,0.01786,2.01787,-0.01394,-0.02703,2.09489,0.55724,0.60023,-0.2002,-0.5717,-4.60206,839.92083,792.93103,0.5584,14.06943,0.5717,-0.12934,6.52343,9.98497,9.85562,,,,,,,,,,,,,,,,,,,,,,,,,
46.49399,1.01874,0.50299,-0.37799,-0.05714,0.21598,-1.99118,0.01976,0.01786,2.01787,-0.01394,-0.02703,2.09489,0.55724,0.60023,-0.2002,-0.5717,-4.60304,840.01,792.93103,0.55838,14.0706,0.5717,-0.12833,6.52343,9.98497,9.85663,,,,,,,,,,,,,,,,,,,,,,,,,
46.49499,1.01874,0.50299,-0.37799,-0.05714,0.21598,-1.99118,0.01976,0.01786,2.01787,-0.01394,-0.02703,2.09489,0.55724,0.60023,-0.2002,-0.5717,-4.60304,840.01,792.93103,0.55838,14.07175,0.5717,-0.12733,6.52343,9.98497,9.85763,,,,,,,,,,,,,,,,,,,,,,,,,
46.49599,1.01874,0.50299,-0.37799,-0.05608,0.22713,-1.98534,0.01976,0.01786,2.01787,-0.01394,-0.02703,2.09489,0.55724,0.60023,-0.2002,-0.5717,-4.604,840.09747,795.03796,0.55836,14.0729,0.5717,-0.12628,6.52343,9.98497,9.85868,,,,,,,,,,,,,,,,,,,,,,,,,
46.497,1.01874,0.50299,-0.37799,-0.05608,0.22713,-1.98534,0.01976,0.01786,2.01787,-0.01394,-0.02703,2.09489,0.55724,0.60023,-0.2002,-0.5717,-4.604,840.09747,795.03796,0.55836,14.07403,0.5717,-0.12523,6.52343,9.98497,9.85973,,,,,,,,,,,,,,,,,,,,,,,,,
46.498,1.01874,0.50299,-0.37799,-0.06533,0.23594,-1.97901,0.01976,0.01786,2.01787,-0.01394,-0.02703,2.09489,0.55724,0.60023,-0.2002,-0.5717,-4.60495,840.18444,795.74279,0.55834,14.07516,0.5717,-0.12424,6.52343,9.98497,9.86072,,,,,,,,,,,,,,,,,,,,,,,,,
46.499,1.01874,0.50299,-0.37799,-0.06533,0.23594,-1.97901,0.01976,0.01786,2.01787,-0.01394,-0.02703,2.09489,0.55724,0.60023,-0.2002,-0.5717,-4.60495,840.18444,795.03796,0.55834,14.07627,0.5717,-0.12325,6.52343,9.98497,9.86172,,,,,,,,,,,,,,,,,,,,,,,,,
46.5,0.80311,0.41454,-0.27948,-0.06987,0.24217,-1.97585,0.01209,0.01511,2.01787,-0.01457,-0.02499,2.07498,0.55724,0.60023,-0.2002,-0.5717,-4.60503,840.19128,795.03796,0.55826,14.07737,0.5717,-0.1224,6.52343,9.98329,9.86088,,,,,,,,,,,,,,,,,,,,,,,,,
46.50099,0.80311,0.41454,-0.27948,-0.06987,0.24217,-1.97585,0.01209,0.01511,2.01787,-0.01457,-0.02499,2.07498,0.55724,0.60023,-0.2002,-0.5717,-4.60503,840.19128,787.36657,0.55826,14.07846,0.5717,-0.12156,6.52343,9.98329,9.86172,,,,,,,,,,,,,,,,,,,,,,,,,
46.50199,0.80311,0.41454,-0.27948,-0.06311,0.25263,-1.97382,0.01209,0.01511,2.01787,-0.01457,-0.02499,2.07498,0.55724,0.60023,-0.2002,-0.5717,-4.6058,840.26196,787.36657,0.55823,14.07953,0.5717,-0.12075,6.52343,9.98329,9.86254,,,,,,,,,,,,,,,,,,,,,,,,,
46.50299,0.80311,0.41454,-0.27948,-0.06311,0.25263,-1.97382,0.01209,0.01511,2.01787,-0.01457,-0.02499,2.07498,0.55724,0.60023,-0.2002,-0.5717,-4.6058,840.26196,795.03796,0.55823,14.08059,0.5717,-0.11993,6.52343,9.98329,9.86336,,,,,,,,,,,,,,,,,,,,,,,,,
46.504,0.80311,0.41454,-0.27948,-0.06095,0.2668,-1.96927,0.01209,0.01511,2.01787,-0.01457,-0.02499,2.07498,0.55724,0.60023,-0.2002,-0.5717,-4.6066,840.33483,796.44885,0.55821,14.08165,0.5717,-0.11903,6.52343,9.98329,9.86425,,,,,,,,,,,,,,,,,,,,,,,,,
46.505,0.80311,0.41454,-0.27948,-0.06095,0.2668,-1.96927,0.01209,0.01511,2.01787,-0.01457,-0.02499,2.07498,0.55724,0.60023,-0.2002,-0.5717,-4.6066,840.33483,796.44885,0.55821,14.08269,0.5717,-0.11814,6.52343,9.98329,9.86515,,,,,,,,,,,,,,,,,,,,,,,,,
46.506,0.80311,0.41454,-0.27948,-0.07026,0.27694,-1.96376,0.01209,0.01511,2.01787,-0.01457,-0.02499,2.07498,0.55724,0.60023,-0.2002,-0.5717,-4.60741,840.40863,796.44885,0.55819,14.08371,0.5717,-0.1173,6.52343,9.98329,9.86598,,,,,,,,,,,,,,,,,,,,,,,,,
46.50699,0.80311,0.41454,-0.27948,-0.07026,0.27694,-1.96376,0.01209,0.01511,2.01787,-0.01457,-0.02499,2.07498,0.55724,0.60023,-0.2002,-0.5717,-4.60741,840.40863,796.44885,0.55819,14.08473,0.5717,-0.11647,6.52343,9.98329,9.86682,,,,,,,,,,,,,,,,,,,,,,,,,
46.50799,0.80311,0.41454,-0.27948,-0.07523,0.28277,-1.96017,0.01209,0.01511,2.01787,-0.01457,-0.02499,2.07498,0.55724,0.60023,-0.2002,-0.5717,-4.60811,840.47192,796.44885,0.55816,14.08573,0.5717,-0.11582,6.52343,9.98329,9.86747,,,,,,,,,,,,,,,,,,,,,,,,,
46.50899,0.80311,0.41454,-0.27948,-0.07523,0.28277,-1.96017,0.01209,0.01511,2.01787,-0.01457,-0.02499,2.07498,0.55724,0.60023,-0.2002,-0.5717,-4.60811,840.47192,797.15625,0.55816,14.08672,0.56129,-0.11517,6.52343,9.98329,9.86812,,,,,,,,,,,,,,,,,,,,,,,,,
46.50999,0.84596,0.38408,-0.18127,-0.06938,0.29105,-1.95603,0.01185,0.01354,2.01787,-0.0154,-0.02244,2.05531,0.54164,0.61765,-0.2002,-0.56129,-4.67811,846.81329,796.44885,0.56327,14.0877,0.56129,-0.11429,6.52371,10.13166,10.01736,,,,,,,,,,,,,,,,,,,,,,,,,
46.511,0.84596,0.38408,-0.18127,-0.06938,0.29105,-1.95603,0.01185,0.01354,2.01787,-0.0154,-0.02244,2.05531,0.54164,0.61765,-0.2002,-0.56129,-4.67811,846.81329,797.15625,0.56327,14.08866,0.56129,-0.11341,6.52371,10.13166,10.01824,,,,,,,,,,,,,,,,,,,,,,,,,
46.512,0.84596,0.38408,-0.18127,-0.06823,0.30136,-1.94771,0.01185,0.01354,2.01787,-0.0154,-0.02244,2.05531,0.54164,0.61765,-0.2002,-0.56129,-4.67895,846.88946,798.57464,0.56326,14.08961,0.56129,-0.11248,6.52371,10.13166,10.01917,,,,,,,,,,,,,,,,,,,,,,,,,
46.513,0.84596,0.38408,-0.18127,-0.06823,0.30136,-1.94771,0.01185,0.01354,2.01787,-0.0154,-0.02244,2.05531,0.54164,0.61765,-0.2002,-0.56129,-4.67895,846.88946,799.2857,0.56326,14.09054,0.56129,-0.11156,6.52371,10.13166,10.02009,,,,,,,,,,,,,,,,,,,,,,,,,
46.51399,0.84596,0.38408,-0.18127,-0.0775,0.30761,-1.9372,0.01185,0.01354,2.01787,-0.0154,-0.02244,2.05531,0.54164,0.61765,-0.2002,-0.56129,-4.67978,846.9649,799.2857,0.56325,14.09146,0.56129,-0.1107,6.52371,10.13166,10.02095,,,,,,,,,,,,,,,,,,,,,,,,,
46.51499,0.84596,0.38408,-0.18127,-0.0775,0.30761,-1.9372,0.01185,0.01354,2.01787,-0.0154,-0.02244,2.05531,0.54164,0.61765,-0.2002,-0.56129,-4.67978,846.9649,799.2857,0.56325,14.09237,0.56129,-0.10984,6.52371,10.13166,10.02181,,,,,,,,,,,,,,,,,,,,,,,,,
46.51599,0.84596,0.38408,-0.18127,-0.08216,0.31192,-1.92813,0.01185,0.01354,2.01787,-0.0154,-0.02244,2.05531,0.54164,0.61765,-0.2002,-0.56129,-4.68052,847.03186,804.29919,0.56323,14.09326,0.56129,-0.10912,6.52371,10.13166,10.02254,,,,,,,,,,,,,,,,,,,,,,,,,
46.51699,0.84596,0.38408,-0.18127,-0.08216,0.31192,-1.92813,0.01185,0.01354,2.01787,-0.0154,-0.02244,2.05531,0.54164,0.61765,-0.2002,-0.56129,-4.68052,847.03186,804.29919,0.56323,14.09414,0.56129,-0.10839,6.52371,10.13166,10.02326,,,,,,,,,,,,,,,,,,,,,,,,,
46.518,0.84596,0.38408,-0.18127,-0.07787,0.32116,-1.91895,0.01185,0.01354,2.01787,-0.0154,-0.02244,2.05531,0.54164,0.61765,-0.2002,-0.56129,-4.68122,847.09503,799.2857,0.56321,14.095,0.56129,-0.10762,6.52371,10.13166,10.02403,,,,,,,,,,,,,,,,,,,,,,,,,
46.519,0.84596,0.38408,-0.18127,-0.07787,0.32116,-1.91895,0.01185,0.01354,2.01787,-0.0154,-0.02244,2.05531,0.54164,0.61765,-0.2002,-0.56129,-4.68122,847.09503,804.29919,0.56321,14.09585,0.5508,-0.10685,6.52371,10.13166,10.0248,,,,,,,,,,,,,,,,,,,,,,,,,
46.52,0.99821,0.48546,-0.08243,-0.07992,0.3324,-1.90655,0.01857,0.01884,2.01787,-0.01635,-0.01948,2.03594,0.52589,0.63111,-0.2002,-0.5508,-4.74443,852.77362,799.2857,0.56779,14.09669,0.5508,-0.10567,6.52404,10.26506,10.15938,,,,,,,,,,,,,,,,,,,,,,,,,
46.52099,0.99821,0.48546,-0.08243,-0.07992,0.3324,-1.90655,0.01857,0.01884,2.01787,-0.01635,-0.01948,2.03594,0.52589,0.63111,-0.2002,-0.5508,-4.74443,852.77362,799.2857,0.56779,14.09751,0.5508,-0.10449,6.52404,10.26506,10.16056,,,,,,,,,,,,,,,,,,,,,,,,,
46.52199,0.99821,0.48546,-0.08243,-0.09179,0.33762,-1.89268,0.01857,0.01884,2.01787,-0.01635,-0.01948,2.03594,0.52589,0.63111,-0.2002,-0.5508,-4.74553,852.87237,804.29919,0.56781,14.09831,0.5508,-0.10332,6.52404,10.26506,10.16173,,,,,,,,,,,,,,,,,,,,,,,,,
46.52299,0.99821,0.48546,-0.08243,-0.09179,0.33762,-1.89268,0.01857,0.01884,2.01787,-0.01635,-0.01948,2.03594,0.52589,0.63111,-0.2002,-0.5508,-4.74553,852.87237,804.29919,0.56781,14.0991,0.5508,-0.10215,6.52404,10.26506,10.16291,,,,,,,,,,,,,,,,,,,,,,,,,
46.52399,0.99821,0.48546,-0.08243,-0.09804,0.33904,-1.88042,0.01857,0.01884,2.01787,-0.01635,-0.01948,2.03594,0.52589,0.63111,-0.2002,-0.5508,-4.74658,852.96679,804.29919,0.56782,14.09988,0.5508,-0.10107,6.52404,10.26506,10.16398,,,,,,,,,,,,,,,,,,,,,,,,,
46.525,0.99821,0.48546,-0.08243,-0.09804,0.33904,-1.88042,0.01857,0.01884,2.01787,-0.01635,-0.01948,2.03594,0.52589,0.63111,-0.2002,-0.5508,-4.74658,852.96679,804.29919,0.56782,14.10064,0.5508,-0.09999,6.52404,10.26506,10.16506,,,,,,,,,,,,,,,,,,,,,,,,,
46.526,0.99821,0.48546,-0.08243,-0.09592,0.34418,-1.86817,0.01857,0.01884,2.01787,-0.01635,-0.01948,2.03594,0.52589,0.63111,-0.2002,-0.5508,-4.7476,853.05853,802.86035,0.56783,14.10138,0.5508,-0.09888,6.52404,10.26506,10.16617,,,,,,,,,,,,,,,,,,,,,,,,,
46.527,0.99821,0.48546,-0.08243,-0.09592,0.34418,-1.86817,0.01857,0.01884,2.01787,-0.01635,-0.01948,2.03594,0.52589,0.63111,-0.2002,-0.5508,-4.7476,853.05853,802.86035,0.56783,14.10211,0.5508,-0.09777,6.52404,10.26506,10.16728,,,,,,,,,,,,,,,,,,,,,,,,,
46.52799,0.99821,0.48546,-0.08243,-0.10086,0.35109,-1.85347,0.01857,0.01884,2.01787,-0.01635,-0.01948,2.03594,0.52589,0.63111,-0.2002,-0.5508,-4.74868,853.15557,804.29919,0.56786,14.10282,0.5508,-0.09657,6.52404,10.26506,10.16848,,,,,,,,,,,,,,,,,,,,,,,,,
46.52899,0.99821,0.48546,-0.08243,-0.10086,0.35109,-1.85347,0.01857,0.01884,2.01787,-0.01635,-0.01948,2.03594,0.52589,0.63111,-0.2002,-0.5508,-4.74868,853.15557,805.02056,0.56786,14.10352,0.5508,-0.09537,6.52404,10.26506,10.16968,,,,,,,,,,,,,,,,,,,,,,,,,
46.52999,0.85683,0.37548,0.01,-0.11447,0.35396,-1.83894,0.01337,0.0162,2.01787,-0.01756,-0.01614,2.01718,0.52589,0.63111,-0.2002,-0.5508,-4.74917,853.19989,804.29919,0.56784,14.1042,0.5508,-0.09419,6.52404,10.26373,10.16954,,,,,,,,,,,,,,,,,,,,,,,,,
46.53099,0.85683,0.37548,0.01,-0.11447,0.35396,-1.83894,0.01337,0.0162,2.01787,-0.01756,-0.01614,2.01718,0.52589,0.63111,-0.2002,-0.5508,-4.74917,853.19989,804.29919,0.56784,14.10486,0.5508,-0.09301,6.52404,10.26373,10.17072,,,,,,,,,,,,,,,,,,,,,,,,,
46.532,0.85683,0.37548,0.01,-0.12113,0.35607,-1.82774,0.01337,0.0162,2.01787,-0.01756,-0.01614,2.01718,0.52589,0.63111,-0.2002,-0.5508,-4.75028,853.29937,805.02056,0.56787,14.1055,0.5508,-0.09182,6.52404,10.26373,10.17191,,,,,,,,,,,,,,,,,,,,,,,,,
46.533,0.85683,0.37548,0.01,-0.12113,0.35607,-1.82774,0.01337,0.0162,2.01787,-0.01756,-0.01614,2.01718,0.52589,0.63111,-0.2002,-0.5508,-4.75028,853.29937,804.29919,0.56787,14.10613,0.5508,-0.09063,6.52404,10.26373,10.1731,,,,,,,,,,,,,,,,,,,,,,,,,
46.534,0.85683,0.37548,0.01,-0.11965,0.36229,-1.8177,0.01337,0.0162,2.01787,-0.01756,-0.01614,2.01718,0.52589,0.63111,-0.2002,-0.5508,-4.7515,853.40869,813.77874,0.5679,14.10674,0.5508,-0.08921,6.52404,10.26373,10.17452,,,,,,,,,,,,,,,,,,,,,,,,,
46.53499,0.85683,0.37548,0.01,-0.11965,0.36229,-1.8177,0.01337,0.0162,2.01787,-0.01756,-0.01614,2.01718,0.52589,0.63111,-0.2002,-0.5508,-4.7515,853.40869,815.9981,0.5679,14.10733,0.5508,-0.08779,6.52404,10.26373,10.17593,,,,,,,,,,,,,,,,,,,,,,,,,
46.53599,0.85683,0.37548,0.01,-0.12422,0.36698,-1.8058,0.01337,0.0162,2.01787,-0.01756,-0.01614,2.01718,0.52589,0.63111,-0.2002,-0.5508,-4.75295,853.53881,824.24047,0.56796,14.10791,0.5508,-0.0861,6.52404,10.26373,10.17762,,,,,,,,,,,,,,,,,,,,,,,,,
46.53699,0.85683,0.37548,0.01,-0.12422,0.36698,-1.8058,0.01337,0.0162,2.01787,-0.01756,-0.01614,2.01718,0.52589,0.63111,-0.2002,-0.5508,-4.75295,853.53881,817.48443,0.56796,14.10847,0.5508,-0.08442,6.52404,10.26373,10.1793,,,,,,,,,,,,,,,,,,,,,,,,,
46.53799,0.85683,0.37548,0.01,-0.1335,0.36397,-1.79345,0.01337,0.0162,2.01787,-0.01756,-0.01614,2.01718,0.52589,0.63111,-0.2002,-0.5508,-4.75455,853.68298,815.9981,0.56804,14.10901,0.5508,-0.08267,6.52404,10.26373,10.18106,,,,,,,,,,,,,,,,,,,,,,,,,
46.539,0.85683,0.37548,0.01,-0.1335,0.36397,-1.79345,0.01337,0.0162,2.01787,-0.01756,-0.01614,2.01718,0.52589,0.63111,-0.2002,-0.5508,-4.75455,853.68298,817.48443,0.56804,14.10954,0.5399,-0.08092,6.52404,10.26373,10.18281,,,,,,,,,,,,,,,,,,,,,,,,,
46.54,0.98255,0.34715,0.10072,-0.13335,0.35909,-1.78212,0.01798,0.0154,2.01787,-0.01915,-0.01266,1.99905,0.50954,0.64619,-0.2002,-0.5399,-4.82268,859.75268,817.48443,0.57296,14.11005,0.5399,-0.07887,6.52442,10.40583,10.32695,,,,,,,,,,,,,,,,,,,,,,,,,
46.541,0.98255,0.34715,0.10072,-0.13335,0.35909,-1.78212,0.01798,0.0154,2.01787,-0.01915,-0.01266,1.99905,0.50954,0.64619,-0.2002,-0.5399,-4.82268,859.75268,818.22955,0.57296,14.11054,0.5399,-0.07683,6.52442,10.40583,10.32899,,,,,,,,,,,,,,,,,,,,,,,,,
46.54199,0.98255,0.34715,0.10072,-0.1274,0.35971,-1.76923,0.01798,0.0154,2.01787,-0.01915,-0.01266,1.99905,0.50954,0.64619,-0.2002,-0.5399,-4.82466,859.92846,818.22955,0.57306,14.11102,0.5399,-0.07465,6.52442,10.40583,10.33118,,,,,,,,,,,,,,,,,,,,,,,,,
46.54299,0.98255,0.34715,0.10072,-0.1274,0.35971,-1.76923,0.01798,0.0154,2.01787,-0.01915,-0.01266,1.99905,0.50954,0.64619,-0.2002,-0.5399,-4.82466,859.92846,819.72406,0.57306,14.11148,0.5399,-0.07247,6.52442,10.40583,10.33336,,,,,,,,,,,,,,,,,,,,,,,,,
46.54399,0.98255,0.34715,0.10072,-0.13063,0.36204,-1.75328,0.01798,0.0154,2.01787,-0.01915,-0.01266,1.99905,0.50954,0.64619,-0.2002,-0.5399,-4.82676,860.11596,819.72406,0.57318,14.11192,0.5399,-0.07015,6.52442,10.40583,10.33568,,,,,,,,,,,,,,,,,,,,,,,,,
46.54499,0.98255,0.34715,0.10072,-0.13063,0.36204,-1.75328,0.01798,0.0154,2.01787,-0.01915,-0.01266,1.99905,0.50954,0.64619,-0.2002,-0.5399,-4.82676,860.11596,819.72406,0.57318,14.11234,0.5399,-0.06782,6.52442,10.40583,10.338,,,,,,,,,,,,,,,,,,,,,,,,,
46.546,0.98255,0.34715,0.10072,-0.13885,0.36108,-1.73741,0.01798,0.0154,2.01787,-0.01915,-0.01266,1.99905,0.50954,0.64619,-0.2002,-0.5399,-4.82893,860.30926,818.22955,0.5733,14.11274,0.5399,-0.0655,6.52442,10.40583,10.34033,,,,,,,,,,,,,,,,,,,,,,,,,
46.547,0.98255,0.34715,0.10072,-0.13885,0.36108,-1.73741,0.01798,0.0154,2.01787,-0.01915,-0.01266,1.99905,0.50954,0.64619,-0.2002,-0.5399,-4.82893,860.30926,818.22955,0.5733,14.11313,0.5399,-0.06317,6.52442,10.40583,10.34265,,,,,,,,,,,,,,,,,,,,,,,,,
46.548,0.98255,0.34715,0.10072,-0.13801,0.3615,-1.72377,0.01798,0.0154,2.01787,-0.01915,-0.01266,1.99905,0.50954,0.64619,-0.2002,-0.5399,-4.83112,860.50445,819.72406,0.57343,14.1135,0.5399,-0.06081,6.52442,10.40583,10.34502,,,,,,,,,,,,,,,,,,,,,,,,,
46.54899,0.98255,0.34715,0.10072,-0.13801,0.3615,-1.72377,0.01798,0.0154,2.01787,-0.01915,-0.01266,1.99905,0.50954,0.64619,-0.2002,-0.5399,-4.83112,860.50445,822.72949,0.57343,14.11386,0.5399,-0.05844,6.52442,10.40583,10.34739,,,,,,,,,,,,,,,,,,,,,,,,,
46.54999,0.88923,0.32055,0.18824,-0.13384,0.36678,-1.70987,0.01408,0.01465,2.01787,-0.02084,-0.00917,1.98156,0.50954,0.64619,-0.2002,-0.5399,-4.83306,860.67724,858.1242,0.57354,14.11419,0.5399,-0.05588,6.52442,10.40506,10.34917,,,,,,,,,,,,,,,,,,,,,,,,,
46.55099,0.88923,0.32055,0.18824,-0.13384,0.36678,-1.70987,0.01408,0.01465,2.01787,-0.02084,-0.00917,1.98156,0.50954,0.64619,-0.2002,-0.5399,-4.83306,860.67724,858.1242,0.57354,14.11451,0.5399,-0.05333,6.52442,10.40506,10.35173,,,,,,,,,,,,,,,,,,,,,,,,,
46.55199,0.88923,0.32055,0.18824,-0.13991,0.37037,-1.69368,0.01408,0.01465,2.01787,-0.02084,-0.00917,1.98156,0.50954,0.64619,-0.2002,-0.5399,-4.83551,860.89514,846.79046,0.5737,14.11481,0.5399,-0.05064,6.52442,10.40506,10.35442,,,,,,,,,,,,,,,,,,,,,,,,,
46.553,0.88923,0.32055,0.18824,-0.13991,0.37037,-1.69368,0.01408,0.01465,2.01787,-0.02084,-0.00917,1.98156,0.50954,0.64619,-0.2002,-0.5399,-4.83551,860.89514,846.79046,0.5737,14.11509,0.5399,-0.04796,6.52442,10.40506,10.3571,,,,,,,,,,,,,,,,,,,,,,,,,
46.554,0.88923,0.32055,0.18824,-0.14951,0.36818,-1.6765,0.01408,0.01465,2.01787,-0.02084,-0.00917,1.98156,0.50954,0.64619,-0.2002,-0.5399,-4.838,861.11718,846.79046,0.57386,14.11536,0.5399,-0.0453,6.52442,10.40506,10.35976,,,,,,,,,,,,,,,,,,,,,,,,,
46.555,0.88923,0.32055,0.18824,-0.14951,0.36818,-1.6765,0.01408,0.01465,2.01787,-0.02084,-0.00917,1.98156,0.50954,0.64619,-0.2002,-0.5399,-4.838,861.11718,846.79046,0.57386,14.1156,0.5399,-0.04264,6.52442,10.40506,10.36241,,,,,,,,,,,,,,,,,,,,,,,,,
46.55599,0.88923,0.32055,0.18824,-0.15001,0.36636,-1.6585,0.01408,0.01465,2.01787,-0.02084,-0.00917,1.98156,0.50954,0.64619,-0.2002,-0.5399,-4.84047,861.33648,846.79046,0.57402,14.11583,0.5399,-0.04002,6.52442,10.40506,10.36503,,,,,,,,,,,,,,,,,,,,,,,,,
46.55699,0.88923,0.32055,0.18824,-0.15001,0.36636,-1.6585,0.01408,0.01465,2.01787,-0.02084,-0.00917,1.98156,0.50954,0.64619,-0.2002,-0.5399,-4.84047,861.33648,846.79046,0.57402,14.11604,0.5399,-0.0374,6.52442,10.40506,10.36766,,,,,,,,,,,,,,,,,,,,,,,,,
46.55799,0.88923,0.32055,0.18824,-0.14823,0.36843,-1.63754,0.01408,0.01465,2.01787,-0.02084,-0.00917,1.98156,0.50954,0.64619,-0.2002,-0.5399,-4.84293,861.55548,840.44744,0.57418,14.11624,0.5399,-0.03475,6.52442,10.40506,10.37031,,,,,,,,,,,,,,,,,,,,,,,,,
46.55899,0.88923,0.32055,0.18824,-0.14823,0.36843,-1.63754,0.01408,0.01465,2.01787,-0.02084,-0.00917,1.98156,0.50954,0.64619,-0.2002,-0.5399,-4.84293,861.55548,840.44744,0.57418,14.11642,0.52909,-0.0321,6.52442,10.40506,10.37296,,,,,,,,,,,,,,,,,,,,,,,,,
46.56,1.07937,0.42847,0.27485,-0.15362,0.36921,-1.61428,0.02224,0.02101,2.01787,-0.02267,-0.00561,1.96485,0.49334,0.64688,-0.2002,-0.52909,-4.88222,865.01397,832.65112,0.57699,14.11657,0.52909,-0.02937,6.52485,10.4838,10.45443,,,,,,,,,,,,,,,,,,,,,,,,,
46.561,1.07937,0.42847,0.27485,-0.15362,0.36921,-1.61428,0.02224,0.02101,2.01787,-0.02267,-0.00561,1.96485,0.49334,0.64688,-0.2002,-0.52909,-4.88222,865.01397,831.87939,0.57699,14.11671,0.52909,-0.02663,6.52485,10.4838,10.45716,,,,,,,,,,,,,,,,,,,,,,,,,
46.562,1.07937,0.42847,0.27485,-0.15719,0.36775,-1.59234,0.02224,0.02101,2.01787,-0.02267,-0.00561,1.96485,0.49334,0.64688,-0.2002,-0.52909,-4.88467,865.23162,831.87939,0.57716,14.11683,0.52909,-0.0241,6.52485,10.4838,10.45969,,,,,,,,,,,,,,,,,,,,,,,,,
46.56299,1.07937,0.42847,0.27485,-0.15719,0.36775,-1.59234,0.02224,0.02101,2.01787,-0.02267,-0.00561,1.96485,0.49334,0.64688,-0.2002,-0.52909,-4.88467,865.23162,827.27917,0.57716,14.11694,0.52909,-0.02158,6.52485,10.4838,10.46222,,,,,,,,,,,,,,,,,,,,,,,,,
46.56399,1.07937,0.42847,0.27485,-0.15208,0.37047,-1.57249,0.02224,0.02101,2.01787,-0.02267,-0.00561,1.96485,0.49334,0.64688,-0.2002,-0.52909,-4.88697,865.4353,827.27917,0.57732,14.11702,0.52909,-0.01918,6.52485,10.4838,10.46461,,,,,,,,,,,,,,,,,,,,,,,,,
46.56499,1.07937,0.42847,0.27485,-0.15208,0.37047,-1.57249,0.02224,0.02101,2.01787,-0.02267,-0.00561,1.96485,0.49334,0.64688,-0.2002,-0.52909,-4.88697,865.4353,821.22412,0.57732,14.11709,0.52909,-0.01678,6.52485,10.4838,10.46701,,,,,,,,,,,,,,,,,,,,,,,,,
46.566,1.07937,0.42847,0.27485,-0.15073,0.37671,-1.55246,0.02224,0.02101,2.01787,-0.02267,-0.00561,1.96485,0.49334,0.64688,-0.2002,-0.52909,-4.88921,865.63299,818.97613,0.57747,14.11714,0.52909,-0.0144,6.52485,10.4838,10.4694,,,,,,,,,,,,,,,,,,,,,,,,,
46.567,1.07937,0.42847,0.27485,-0.15073,0.37671,-1.55246,0.02224,0.02101,2.01787,-0.02267,-0.00561,1.96485,0.49334,0.64688,-0.2002,-0.52909,-4.88921,865.63299,821.22412,0.57747,14.11717,0.52909,-0.01201,6.52485,10.4838,10.47178,,,,,,,,,,,,,,,,,,,,,,,,,
46.568,1.07937,0.42847,0.27485,-0.1599,0.37765,-1.532,0.02224,0.02101,2.01787,-0.02267,-0.00561,1.96485,0.49334,0.64688,-0.2002,-0.52909,-4.89137,865.82501,818.97613,0.57763,14.11718,0.52909,-0.00975,6.52485,10.4838,10.47404,,,,,,,,,,,,,,,,,,,,,,,,,
46.569,1.07937,0.42847,0.27485,-0.1599,0.37765,-1.532,0.02224,0.02101,2.01787,-0.02267,-0.00561,1.96485,0.49334,0.64688,-0.2002,-0.52909,-4.89137,865.82501,818.97613,0.57763,14.11718,0.52179,-0.00749,6.52485,10.4838,10.4763,,,,,,,,,,,,,,,,,,,,,,,,,
46.56999,0.89799,0.06436,0.3449,-0.16578,0.37257,-1.51227,0.01535,0.00586,2.01787,-0.02461,-0.00191,1.94922,0.48239,0.65736,-0.2002,-0.52179,-4.93687,869.82067,817.48443,0.58089,14.11716,0.52179,-0.00529,6.52518,10.57676,10.57147,,,,,,,,,,,,,,,,,,,,,,,,,
46.57099,0.89799,0.06436,0.3449,-0.16578,0.37257,-1.51227,0.01535,0.00586,2.01787,-0.02461,-0.00191,1.94922,0.48239,0.65736,-0.2002,-0.52179,-4.93687,869.82067,811.57135,0.58089,14.11713,0.52179,-0.00309,6.52518,10.57676,10.57367,,,,,,,,,,,,,,,,,,,,,,,,,
46.57199,0.89799,0.06436,0.3449,-0.16172,0.3694,-1.49143,0.01535,0.00586,2.01787,-0.02461,-0.00191,1.94922,0.48239,0.65736,-0.2002,-0.52179,-4.93886,869.99566,817.48443,0.58104,14.11708,0.52179,-0.00103,6.52518,10.57676,10.57572,,,,,,,,,,,,,,,,,,,,,,,,,
46.573,0.89799,0.06436,0.3449,-0.16172,0.3694,-1.49143,0.01535,0.00586,2.01787,-0.02461,-0.00191,1.94922,0.48239,0.65736,-0.2002,-0.52179,-4.93886,869.99566,811.57135,0.58104,14.11701,0.52179,0.00101,6.52518,10.57676,10.57777,,,,,,,,,,,,,,,,,,,,,,,,,
46.574,0.89799,0.06436,0.3449,-0.16101,0.36895,-1.46687,0.01535,0.00586,2.01787,-0.02461,-0.00191,1.94922,0.48239,0.65736,-0.2002,-0.52179,-4.94075,870.1618,817.48443,0.58118,14.11693,0.52179,0.00299,6.52518,10.57676,10.57976,,,,,,,,,,,,,,,,,,,,,,,,,
46.575,0.89799,0.06436,0.3449,-0.16101,0.36895,-1.46687,0.01535,0.00586,2.01787,-0.02461,-0.00191,1.94922,0.48239,0.65736,-0.2002,-0.52179,-4.94075,870.1618,821.22412,0.58118,14.11682,0.52179,0.00498,6.52518,10.57676,10.58175,,,,,,,,,,,,,,,,,,,,,,,,,
46.576,0.89799,0.06436,0.3449,-0.16823,0.36575,-1.44004,0.01535,0.00586,2.01787,-0.02461,-0.00191,1.94922,0.48239,0.65736,-0.2002,-0.52179,-4.94253,870.3186,822.72949,0.58132,14.11671,0.52179,0.00681,6.52518,10.57676,10.58358,,,,,,,,,,,,,,,,,,,,,,,,,
46.57699,0.89799,0.06436,0.3449,-0.16823,0.36575,-1.44004,0.01535,0.00586,2.01787,-0.02461,-0.00191,1.94922,0.48239,0.65736,-0.2002,-0.52179,-4.94253,870.3186,828.04235,0.58132,14.11657,0.52179,0.00864,6.52518,10.57676,10.5854,,,,,,,,,,,,,,,,,,,,,,,,,
46.57799,0.89799,0.06436,0.3449,-0.17006,0.36189,-1.41358,0.01535,0.00586,2.01787,-0.02461,-0.00191,1.94922,0.48239,0.65736,-0.2002,-0.52179,-4.94415,870.46197,828.04235,0.58145,14.11642,0.52179,0.0103,6.52518,10.57676,10.58706,,,,,,,,,,,,,,,,,,,,,,,,,
46.57899,0.89799,0.06436,0.3449,-0.17006,0.36189,-1.41358,0.01535,0.00586,2.01787,-0.02461,-0.00191,1.94922,0.48239,0.65736,-0.2002,-0.52179,-4.94415,870.46197,835.75225,0.58145,14.11625,0.51069,0.01195,6.52518,10.57676,10.58872,,,,,,,,,,,,,,,,,,,,,,,,,
46.58,1.09933,0.35088,0.42544,-0.16443,0.36283,-1.38678,0.02331,0.0163,2.01787,-0.02671,0.00171,1.93468,0.46574,0.66065,-0.2002,-0.51069,-4.98905,874.36804,835.75225,0.58465,14.11606,0.51069,0.01383,6.52574,10.66938,10.68321,,,,,,,,,,,,,,,,,,,,,,,,,
46.581,1.09933,0.35088,0.42544,-0.16443,0.36283,-1.38678,0.02331,0.0163,2.01787,-0.02671,0.00171,1.93468,0.46574,0.66065,-0.2002,-0.51069,-4.98905,874.36804,835.75225,0.58465,14.11586,0.51069,0.0157,6.52574,10.66938,10.68508,,,,,,,,,,,,,,,,,,,,,,,,,
46.582,1.09933,0.35088,0.42544,-0.1659,0.36437,-1.35853,0.02331,0.0163,2.01787,-0.02671,0.00171,1.93468,0.46574,0.66065,-0.2002,-0.51069,-4.99085,874.52563,835.75225,0.5848,14.11564,0.51069,0.01768,6.52574,10.66938,10.68706,,,,,,,,,,,,,,,,,,,,,,,,,
46.583,1.09933,0.35088,0.42544,-0.1659,0.36437,-1.35853,0.02331,0.0163,2.01787,-0.02671,0.00171,1.93468,0.46574,0.66065,-0.2002,-0.51069,-4.99085,874.52563,828.04235,0.5848,14.1154,0.51069,0.01966,6.52574,10.66938,10.68904,,,,,,,,,,,,,,,,,,,,,,,,,
46.58399,1.09933,0.35088,0.42544,-0.17596,0.35973,-1.33095,0.02331,0.0163,2.01787,-0.02671,0.00171,1.93468,0.46574,0.66065,-0.2002,-0.51069,-4.9927,874.68707,835.75225,0.58495,14.11515,0.51069,0.02162,6.52574,10.66938,10.691,,,,,,,,,,,,,,,,,,,,,,,,,
46.58499,1.09933,0.35088,0.42544,-0.17596,0.35973,-1.33095,0.02331,0.0163,2.01787,-0.02671,0.00171,1.93468,0.46574,0.66065,-0.2002,-0.51069,-4.9927,874.68707,835.75225,0.58495,14.11487,0.51069,0.02359,6.52574,10.66938,10.69297,,,,,,,,,,,,,,,,,,,,,,,,,
46.58599,1.09933,0.35088,0.42544,-0.18113,0.35258,-1.30538,0.02331,0.0163,2.01787,-0.02671,0.00171,1.93468,0.46574,0.66065,-0.2002,-0.51069,-4.99452,874.8468,835.75225,0.58511,14.11458,0.51069,0.02553,6.52574,10.66938,10.69491,,,,,,,,,,,,,,,,,,,,,,,,,
46.587,1.09933,0.35088,0.42544,-0.18113,0.35258,-1.30538,0.02331,0.0163,2.01787,-0.02671,0.00171,1.93468,0.46574,0.66065,-0.2002,-0.51069,-4.99452,874.8468,826.51739,0.58511,14.11428,0.51069,0.02746,6.52574,10.66938,10.69685,,,,,,,,,,,,,,,,,,,,,,,,,
46.588,1.09933,0.35088,0.42544,-0.18106,0.34861,-1.27936,0.02331,0.0163,2.01787,-0.02671,0.00171,1.93468,0.46574,0.66065,-0.2002,-0.51069,-4.99638,875.00952,826.51739,0.58527,14.11396,0.51069,0.02951,6.52574,10.66938,10.69889,,,,,,,,,,,,,,,,,,,,,,,,,
46.589,1.09933,0.35088,0.42544,-0.18106,0.34861,-1.27936,0.02331,0.0163,2.01787,-0.02671,0.00171,1.93468,0.46574,0.66065,-0.2002,-0.51069,-4.99638,875.00952,826.51739,0.58527,14.11362,0.51069,0.03155,6.52574,10.66938,10.70093,,,,,,,,,,,,,,,,,,,,,,,,,
46.59,0.97144,0.25302,0.48916,-0.18597,0.34432,-1.25145,0.01885,0.01509,2.01787,-0.0289,0.00535,1.92154,0.46574,0.66065,-0.2002,-0.51069,-4.99775,875.12994,825.75701,0.58539,14.11327,0.51069,0.03366,6.52574,10.66817,10.70183,,,,,,,,,,,,,,,,,,,,,,,,,
46.59099,0.97144,0.25302,0.48916,-0.18597,0.34432,-1.25145,0.01885,0.01509,2.01787,-0.0289,0.00535,1.92154,0.46574,0.66065,-0.2002,-0.51069,-4.99775,875.12994,824.24047,0.58539,14.1129,0.51069,0.03577,6.52574,10.66817,10.70394,,,,,,,,,,,,,,,,,,,,,,,,,
46.59199,0.97144,0.25302,0.48916,-0.19158,0.33676,-1.22377,0.01885,0.01509,2.01787,-0.0289,0.00535,1.92154,0.46574,0.66065,-0.2002,-0.51069,-4.99969,875.29986,822.72949,0.58556,14.11252,0.51069,0.03781,6.52574,10.66817,10.70599,,,,,,,,,,,,,,,,,,,,,,,,,
46.59299,0.97144,0.25302,0.48916,-0.19158,0.33676,-1.22377,0.01885,0.01509,2.01787,-0.0289,0.00535,1.92154,0.46574,0.66065,-0.2002,-0.51069,-4.99969,875.29986,824.24047,0.58556,14.11212,0.51069,0.03986,6.52574,10.66817,10.70804,,,,,,,,,,,,,,,,,,,,,,,,,
46.594,0.97144,0.25302,0.48916,-0.18799,0.33162,-1.1972,0.01885,0.01509,2.01787,-0.0289,0.00535,1.92154,0.46574,0.66065,-0.2002,-0.51069,-5.00161,875.4674,824.24047,0.58573,14.1117,0.51069,0.04191,6.52574,10.66817,10.71009,,,,,,,,,,,,,,,,,,,,,,,,,
46.595,0.97144,0.25302,0.48916,-0.18799,0.33162,-1.1972,0.01885,0.01509,2.01787,-0.0289,0.00535,1.92154,0.46574,0.66065,-0.2002,-0.51069,-5.00161,875.4674,824.24047,0.58573,14.11127,0.51069,0.04396,6.52574,10.66817,10.71214,,,,,,,,,,,,,,,,,,,,,,,,,
46.596,0.97144,0.25302,0.48916,-0.1826,0.33106,-1.16969,0.01885,0.01509,2.01787,-0.0289,0.00535,1.92154,0.46574,0.66065,-0.2002,-0.51069,-5.00359,875.64123,824.24047,0.58591,14.11082,0.51069,0.04617,6.52574,10.66817,10.71434,,,,,,,,,,,,,,,,,,,,,,,,,
46.597,0.97144,0.25302,0.48916,-0.1826,0.33106,-1.16969,0.01885,0.01509,2.01787,-0.0289,0.00535,1.92154,0.46574,0.66065,-0.2002,-0.51069,-5.00359,875.64123,829.57287,0.58591,14.11035,0.51069,0.04837,6.52574,10.66817,10.71654,,,,,,,,,,,,,,,,,,,,,,,,,
46.59799,0.97144,0.25302,0.48916,-0.18568,0.32726,-1.14116,0.01885,0.01509,2.01787,-0.0289,0.00535,1.92154,0.46574,0.66065,-0.2002,-0.51069,-5.00568,875.8233,830.34033,0.5861,14.10986,0.51069,0.05062,6.52574,10.66817,10.7188,,,,,,,,,,,,,,,,,,,,,,,,,
46.59899,0.97144,0.25302,0.48916,-0.18568,0.32726,-1.14116,0.01885,0.01509,2.01787,-0.0289,0.00535,1.92154,0.46574,0.66065,-0.2002,-0.51069,-5.00568,875.8233,829.57287,0.5861,14.10936,0.49959,0.05288,6.52574,10.66817,10.72105,,,,,,,,,,,,,,,,,,,,,,,,,
46.59999,1.03772,0.29598,0.55007,-0.18887,0.31719,-1.11422,0.02064,0.01893,2.01787,-0.03125,0.00873,1.90975,0.44909,0.66569,-0.2002,-0.49959,-5.05393,879.99114,830.34033,0.58955,14.10884,0.49959,0.05522,6.52638,10.7669,10.82212,,,,,,,,,,,,,,,,,,,,,,,,,
46.601,1.03772,0.29598,0.55007,-0.18887,0.31719,-1.11422,0.02064,0.01893,2.01787,-0.03125,0.00873,1.90975,0.44909,0.66569,-0.2002,-0.49959,-5.05393,879.99114,830.34033,0.58955,14.10831,0.49959,0.05756,6.52638,10.7669,10.82446,,,,,,,,,,,,,,,,,,,,,,,,,
46.602,1.03772,0.29598,0.55007,-0.1833,0.30821,-1.08882,0.02064,0.01893,2.01787,-0.03125,0.00873,1.90975,0.44909,0.66569,-0.2002,-0.49959,-5.05608,880.17877,831.87939,0.58975,14.10776,0.49959,0.05983,6.52638,10.7669,10.82674,,,,,,,,,,,,,,,,,,,,,,,,,
46.603,1.03772,0.29598,0.55007,-0.1833,0.30821,-1.08882,0.02064,0.01893,2.01787,-0.03125,0.00873,1.90975,0.44909,0.66569,-0.2002,-0.49959,-5.05608,880.17877,831.87939,0.58975,14.10719,0.49959,0.06211,6.52638,10.7669,10.82901,,,,,,,,,,,,,,,,,,,,,,,,,
46.604,1.03772,0.29598,0.55007,-0.17827,0.30266,-1.06248,0.02064,0.01893,2.01787,-0.03125,0.00873,1.90975,0.44909,0.66569,-0.2002,-0.49959,-5.05821,880.36413,842.02429,0.58995,14.1066,0.49959,0.06439,6.52638,10.7669,10.8313,,,,,,,,,,,,,,,,,,,,,,,,,
46.60499,1.03772,0.29598,0.55007,-0.17827,0.30266,-1.06248,0.02064,0.01893,2.01787,-0.03125,0.00873,1.90975,0.44909,0.66569,-0.2002,-0.49959,-5.05821,880.36413,831.87939,0.58995,14.106,0.49959,0.06668,6.52638,10.7669,10.83358,,,,,,,,,,,,,,,,,,,,,,,,,
46.60599,1.03772,0.29598,0.55007,-0.17987,0.29443,-1.0356,0.02064,0.01893,2.01787,-0.03125,0.00873,1.90975,0.44909,0.66569,-0.2002,-0.49959,-5.06028,880.54425,830.34033,0.59015,14.10539,0.49959,0.06883,6.52638,10.7669,10.83573,,,,,,,,,,,,,,,,,,,,,,,,,
46.60699,1.03772,0.29598,0.55007,-0.17987,0.29443,-1.0356,0.02064,0.01893,2.01787,-0.03125,0.00873,1.90975,0.44909,0.66569,-0.2002,-0.49959,-5.06028,880.54425,830.34033,0.59015,14.10476,0.49959,0.07097,6.52638,10.7669,10.83788,,,,,,,,,,,,,,,,,,,,,,,,,
46.608,1.03772,0.29598,0.55007,-0.17636,0.2838,-1.01041,0.02064,0.01893,2.01787,-0.03125,0.00873,1.90975,0.44909,0.66569,-0.2002,-0.49959,-5.06216,880.70764,830.34033,0.59033,14.10411,0.49959,0.07285,6.52638,10.7669,10.83975,,,,,,,,,,,,,,,,,,,,,,,,,
46.609,1.03772,0.29598,0.55007,-0.17636,0.2838,-1.01041,0.02064,0.01893,2.01787,-0.03125,0.00873,1.90975,0.44909,0.66569,-0.2002,-0.49959,-5.06216,880.70764,830.34033,0.59033,14.10344,0.49959,0.07473,6.52638,10.7669,10.84163,,,,,,,,,,,,,,,,,,,,,,,,,
46.61,0.9939,0.19946,0.59982,-0.16306,0.27747,-0.9855,0.01817,0.01685,2.01787,-0.03349,0.01185,1.8993,0.44909,0.66569,-0.2002,-0.49959,-5.06341,880.81604,831.87939,0.59048,14.10276,0.49959,0.07644,6.52638,10.76598,10.84242,,,,,,,,,,,,,,,,,,,,,,,,,
46.611,0.9939,0.19946,0.59982,-0.16306,0.27747,-0.9855,0.01817,0.01685,2.01787,-0.03349,0.01185,1.8993,0.44909,0.66569,-0.2002,-0.49959,-5.06341,880.81604,831.87939,0.59048,14.10207,0.49959,0.07815,6.52638,10.76598,10.84413,,,,,,,,,,,,,,,,,,,,,,,,,
46.61199,0.9939,0.19946,0.59982,-0.15338,0.27406,-0.95798,0.01817,0.01685,2.01787,-0.03349,0.01185,1.8993,0.44909,0.66569,-0.2002,-0.49959,-5.06498,880.95288,831.87939,0.59065,14.10135,0.49959,0.07981,6.52638,10.76598,10.84579,,,,,,,,,,,,,,,,,,,,,,,,,
46.61299,0.9939,0.19946,0.59982,-0.15338,0.27406,-0.95798,0.01817,0.01685,2.01787,-0.03349,0.01185,1.8993,0.44909,0.66569,-0.2002,-0.49959,-5.06498,880.95288,831.87939,0.59065,14.10062,0.49959,0.08146,6.52638,10.76598,10.84745,,,,,,,,,,,,,,,,,,,,,,,,,
46.61399,0.9939,0.19946,0.59982,-0.15203,0.26699,-0.92906,0.01817,0.01685,2.01787,-0.03349,0.01185,1.8993,0.44909,0.66569,-0.2002,-0.49959,-5.06648,881.08325,834.19879,0.59082,14.09988,0.49959,0.08301,6.52638,10.76598,10.849,,,,,,,,,,,,,,,,,,,,,,,,,
46.615,0.9939,0.19946,0.59982,-0.15203,0.26699,-0.92906,0.01817,0.01685,2.01787,-0.03349,0.01185,1.8993,0.44909,0.66569,-0.2002,-0.49959,-5.06648,881.08325,831.87939,0.59082,14.09912,0.49959,0.08457,6.52638,10.76598,10.85055,,,,,,,,,,,,,,,,,,,,,,,,,
46.616,0.9939,0.19946,0.59982,-0.14752,0.25827,-0.90184,0.01817,0.01685,2.01787,-0.03349,0.01185,1.8993,0.44909,0.66569,-0.2002,-0.49959,-5.06789,881.20593,831.87939,0.59098,14.09834,0.49959,0.08604,6.52638,10.76598,10.85202,,,,,,,,,,,,,,,,,,,,,,,,,
46.617,0.9939,0.19946,0.59982,-0.14752,0.25827,-0.90184,0.01817,0.01685,2.01787,-0.03349,0.01185,1.8993,0.44909,0.66569,-0.2002,-0.49959,-5.06789,881.20593,834.19879,0.59098,14.09755,0.49959,0.08751,6.52638,10.76598,10.85349,,,,,,,,,,,,,,,,,,,,,,,,,
